"Time (s)","Acceleration x (m/s^2)","Acceleration y (m/s^2)","Acceleration z (m/s^2)"
1.126402500E-2,-4.019642830E0,3.378067255E0,7.778468132E0
1.371543100E-2,-3.940679789E0,3.466601849E0,7.795217991E0
1.616199400E-2,-3.840181351E0,3.540779352E0,7.845467091E0
1.860595200E-2,-3.768396616E0,3.631706476E0,7.984251022E0
2.104923300E-2,-3.732504129E0,3.749253988E0,8.166404724E0
2.349225400E-2,-3.667897940E0,3.911965847E0,8.384151459E0
2.591105600E-2,-3.619742393E0,4.031607151E0,8.647361755E0
2.832991100E-2,-3.679862022E0,4.402793884E0,9.260522842E0
3.077267100E-2,-3.679862022E0,4.402793884E0,9.260522842E0
3.321053600E-2,-3.679862022E0,4.402793884E0,9.260522842E0
3.562449400E-2,-3.699004650E0,4.496113777E0,9.650552750E0
3.800741100E-2,-3.699004650E0,4.496113777E0,9.650552750E0
4.041428600E-2,-3.516851187E0,4.398007870E0,9.844670296E0
4.285704600E-2,-3.516851187E0,4.398007870E0,9.844670296E0
4.527584800E-2,-2.863311291E0,4.529613495E0,1.004327488E1
4.767074400E-2,-2.650350094E0,4.610969067E0,1.026819992E1
5.006564000E-2,-2.726920605E0,4.328616142E0,1.016770172E1
5.246053600E-2,-2.908775091E0,3.959822416E0,9.810872078E0
5.485543100E-2,-3.205784082E0,3.574278831E0,9.253045082E0
5.725032700E-2,-3.504886866E0,3.205784082E0,8.599505424E0
5.964522300E-2,-3.708575964E0,2.858525753E0,8.070392609E0
6.204011900E-2,-3.785146236E0,2.533101797E0,7.761718273E0
6.443501500E-2,-3.763610840E0,2.312663078E0,7.613363266E0
6.682991100E-2,-3.617349625E0,2.149951220E0,7.639684677E0
6.922480600E-2,-3.411566973E0,1.963011861E0,7.713861942E0
7.161970200E-2,-3.275176048E0,1.872084618E0,7.907680511E0
7.401459800E-2,-3.205784082E0,1.797907114E0,8.147261620E0
7.640949400E-2,-3.251247883E0,1.726122379E0,8.367402077E0
7.880439000E-2,-3.418745279E0,1.678265929E0,8.575576782E0
8.122324400E-2,-4.038785458E0,1.565803289E0,8.841479301E0
8.367069200E-2,-4.357329845E0,1.496411443E0,9.128618240E0
8.612199400E-2,-4.721039295E0,1.472483277E0,9.291629791E0
8.857204600E-2,-5.044369221E0,1.427019596E0,9.346664429E0
9.102121300E-2,-5.338985443E0,1.345364571E0,9.521340370E0
9.346980600E-2,-5.563910961E0,1.273579836E0,9.688838005E0
9.591782700E-2,-5.776872158E0,1.247258782E0,9.782157898E0
9.836537900E-2,-5.999703884E0,1.225723386E0,1.009591675E1
1.008126710E-1,-6.200700760E0,1.218544960E0,1.046949673E1
1.032596500E-1,-6.447161674E0,1.259222865E0,1.040489006E1
1.057064210E-1,-6.579065800E0,1.261615753E0,1.054845905E1
1.081529310E-1,-6.693921566E0,1.323829174E0,1.023230743E1
1.105992330E-1,-6.837490559E0,1.345364571E0,1.006241703E1
1.130454310E-1,-6.923632145E0,1.261615753E0,1.039053345E1
1.154914210E-1,-7.158428192E0,9.481559992E-1,1.015334511E1
1.179373060E-1,-6.849454880E0,9.571290761E-2,9.976275444E0
1.203831400E-1,-6.837490559E0,-1.674975827E-2,9.897313118E0
1.228288690E-1,-6.768098831E0,7.657032460E-2,9.887741089E0
1.252744940E-1,-6.837490559E0,1.268195957E-1,9.937990189E0
1.277200150E-1,-6.993024349E0,8.614161611E-2,9.892526627E0
1.301654310E-1,-7.120142937E0,-1.196411345E-2,9.700801849E0
1.326108480E-1,-7.084250450E0,-1.986042857E-1,9.650552750E0
1.350561610E-1,-6.926024914E0,-3.687937856E-1,9.626625061E0
1.375013690E-1,-6.715456963E0,-4.980062246E-1,9.384949684E0
1.399465770E-1,-6.457031727E0,-6.248258352E-1,9.255437851E0
1.423916810E-1,-6.193522453E0,-7.468597889E-1,9.250652313E0
1.448367330E-1,-5.918347836E0,-8.859425783E-1,9.291629791E0
1.472817330E-1,-5.626124382E0,-9.816554785E-1,9.521340370E0
1.497266810E-1,-5.386841774E0,-1.070189953E0,9.758230209E0
1.521715770E-1,-5.185545921E0,-1.089332461E0,1.001216793E1
1.546164210E-1,-4.943870544E0,-1.079761267E0,1.030648518E1
1.570612130E-1,-4.759324074E0,-1.072582722E0,1.054128075E1
1.595059520E-1,-4.532006264E0,-1.034297585E0,1.070399284E1
1.619506400E-1,-4.309473515E0,-9.505487680E-1,1.073270702E1
1.643952750E-1,-4.072285175E0,-8.282157183E-1,1.060349464E1
1.668398580E-1,-3.821038723E0,-7.013961077E-1,1.054367352E1
1.692843900E-1,-3.557528973E0,-5.721837282E-1,1.040010452E1
1.717161610E-1,-3.073879719E0,-1.096511006E0,1.021316528E1
1.741229830E-1,-2.353341103E0,-2.437089920E0,1.018923664E1
1.765180880E-1,-1.568196177E0,-2.841775894E0,1.044078255E1
1.789139210E-1,-3.496512175E-1,-3.066701412E0,1.144845963E1
1.813098060E-1,7.229315639E-1,-3.282354355E0,1.333998585E1
1.837048580E-1,1.661516190E0,-3.488137245E0,1.526232052E1
1.860999630E-1,2.303091764E0,-3.600599766E0,1.598764420E1
1.884958480E-1,2.453839540E0,-3.535993576E0,1.514746475E1
1.908917330E-1,2.353341103E0,-3.267997503E0,1.399831200E1
1.932867860E-1,2.078166485E0,-2.671885490E0,1.362951756E1
1.956818900E-1,1.369292736E0,-1.656730533E0,1.382363510E1
1.980777230E-1,-2.679961324E-1,-3.951148391E-1,1.348355579E1
2.004736080E-1,-2.087737799E0,6.583253145E-1,1.263141155E1
2.028687130E-1,-3.110071182E0,1.553839207E0,1.261675549E1
2.052638170E-1,-3.559921980E0,2.204986095E0,1.341177082E1
2.076597020E-1,-3.514458179E0,2.571387053E0,1.405573940E1
2.100555360E-1,-3.093321562E0,2.638386011E0,1.450110340E1
2.124506400E-1,-2.520838737E0,2.597707987E0,1.480738449E1
2.148457440E-1,-1.852941990E0,2.487339020E0,1.505414486E1
2.172416290E-1,-1.118046403E0,2.300698996E0,1.514507198E1
2.196374630E-1,-4.334000051E-1,2.116451740E0,1.499910927E1
2.220325150E-1,2.273181528E-1,1.886441588E0,1.472124290E1
2.244276190E-1,7.899305820E-1,1.680658817E0,1.436231995E1
2.268235040E-1,1.249651670E0,1.419841170E0,1.394806194E1
2.292193900E-1,1.625623941E0,1.180259824E0,1.346201992E1
2.316144420E-1,1.970489502E0,8.859425783E-1,1.290658665E1
2.340095460E-1,2.257628202E0,6.224330068E-1,1.232722378E1
2.364054310E-1,2.489732027E0,3.759722710E-1,1.176939774E1
2.388013170E-1,2.631207705E0,1.507478207E-1,1.121874905E1
2.411963690E-1,2.738884687E0,-7.417750359E-2,1.068724346E1
2.435914730E-1,2.772384167E0,-2.898306549E-1,1.022512913E1
2.459873580E-1,2.762812853E0,-4.716851711E-1,9.842277527E0
2.483831920E-1,2.662314177E0,-6.367899179E-1,9.562018394E0
2.507782960E-1,2.535494804E0,-7.875377536E-1,9.329915047E0
2.531734000E-1,2.358126640E0,-9.457631707E-1,9.162117958E0
2.555692860E-1,2.401197433E0,-1.297508121E0,9.049654961E0
2.579651190E-1,2.939881802E0,-2.025524378E0,9.044869423E0
2.603601710E-1,4.172783375E0,-3.196212769E0,9.147761345E0
2.627552750E-1,5.353342533E0,-4.352544308E0,9.459127426E0
2.651511610E-1,6.526423931E0,-5.470590591E0,9.964311600E0
2.675470460E-1,7.538887024E0,-6.346662998E0,1.045992470E1
2.699420980E-1,8.326724052E0,-7.012166977E0,1.037348461E1
2.723372020E-1,8.183154106E0,-6.887740135E0,1.001934624E1
2.747330880E-1,6.985845566E0,-5.659623623E0,9.703194618E0
2.771289730E-1,5.348556995E0,-3.974179268E0,9.636196136E0
2.795240250E-1,3.543172121E0,-2.204986095E0,9.652945518E0
2.819191290E-1,1.980060697E0,-6.343970895E-1,9.696016312E0
2.843150150E-1,9.002995491E-1,5.099703074E-1,9.813264847E0
2.867108480E-1,3.999004960E-1,1.187438250E0,9.940383911E0
2.891059000E-1,4.405784607E-1,1.290329576E0,9.976275444E0
2.915010040E-1,5.291129351E-1,9.505487680E-1,9.971489906E0
2.938969420E-1,3.110669367E-2,1.076770201E-1,1.056760216E1
2.962927750E-1,3.041875660E-1,-5.937191248E-1,1.144606686E1
2.986878270E-1,7.085745931E-1,-1.467697620E0,1.043599701E1
3.010829310E-1,1.082154036E0,-2.245664120E0,8.654540062E0
3.034788170E-1,1.113260746E0,-2.710170746E0,7.599006653E0
3.058747020E-1,7.971090674E-1,-2.980559587E0,7.074679375E0
3.082697540E-1,4.046861231E-1,-3.241676569E0,7.024429798E0
3.106648580E-1,1.220339537E-1,-3.452244759E0,7.249355316E0
3.130607440E-1,6.460621208E-2,-3.598206997E0,7.498209000E0
3.154565770E-1,1.220339537E-1,-3.641277790E0,7.560422421E0
3.178516810E-1,1.555334777E-1,-3.557528973E0,7.486244678E0
3.202467860E-1,-1.507478207E-1,-3.160320520E0,7.177570820E0
3.226426710E-1,-6.678966284E-1,-2.461018085E0,6.780063152E0
3.250385040E-1,-1.067797065E0,-1.812264085E0,6.693921566E0
3.274336080E-1,-1.314257860E0,-1.254437327E0,6.435197353E0
3.298287130E-1,-1.474876046E0,-6.918248534E-1,6.066702843E0
3.322245980E-1,-1.721336842E0,-1.292124242E-1,5.556732178E0
3.346204310E-1,-1.893620014E0,3.352942765E-1,5.341378212E0
3.370154830E-1,-1.996810555E0,6.415755749E-1,5.482554913E0
3.394105880E-1,-1.953440547E0,7.731808424E-1,5.896812439E0
3.418064730E-1,-1.644766450E0,7.061817646E-1,6.425626278E0
3.442023580E-1,-1.153938770E0,4.740779996E-1,6.947560310E0
3.465974110E-1,-5.697908998E-1,1.292124242E-1,7.321139812E0
3.489925150E-1,3.110669367E-2,-2.321037948E-1,7.445566654E0
3.513884000E-1,5.602195859E-1,-5.338985324E-1,7.447959423E0
3.537842860E-1,1.017547846E0,-7.564310431E-1,7.333104134E0
3.561793380E-1,1.434198022E0,-9.481559992E-1,7.132106781E0
3.585744420E-1,1.790728688E0,-1.086939692E0,6.863811970E0
3.609703270E-1,2.018345833E0,-1.161117196E0,6.552744865E0
3.633661610E-1,2.204986095E0,-1.185045362E0,6.212665081E0
3.657612650E-1,2.449054003E0,-1.235294700E0,5.855835438E0
3.681563690E-1,2.710170746E0,-1.252044439E0,5.516054630E0
3.705522540E-1,2.908775091E0,-1.247258782E0,5.135296345E0
3.729480880E-1,2.968595505E0,-1.187438250E0,4.735395908E0
3.753431400E-1,2.911167860E0,-1.101296663E0,4.376472473E0
3.777382440E-1,2.813062191E0,-9.720842242E-1,4.048357010E0
3.801341810E-1,2.626421928E0,-7.971090674E-1,3.734897137E0
3.825300150E-1,2.382055044E0,-6.176473498E-1,3.488137245E0
3.849250670E-1,2.193022013E0,-4.549354017E-1,3.270390272E0
3.873201710E-1,2.374876499E0,-4.908277392E-1,2.908775091E0
3.897160560E-1,3.763610840E0,-1.031904817E0,1.850549221E0
3.921119420E-1,4.601397991E0,-1.366899967E0,1.041476011E0
3.945069940E-1,4.771587372E0,-1.398006678E0,9.098708034E-1
3.969020980E-1,4.331008911E0,-1.235294700E0,1.297508121E0
3.992979830E-1,3.471387386E0,-9.864411354E-1,2.219342947E0
4.016938170E-1,2.825026274E0,-7.420741320E-1,3.040380239E0
4.040889210E-1,2.667099953E0,-5.961119533E-1,3.232105255E0
4.064840250E-1,2.851347208E0,-5.099703074E-1,3.177070379E0
4.088799110E-1,2.925524712E0,-4.740779996E-1,3.227319479E0
4.112757440E-1,2.746062994E0,-2.970091105E-1,3.602992773E0
4.136707960E-1,2.413161755E0,-7.417750359E-2,4.271188259E0
4.160659000E-1,1.975275040E0,2.321037948E-1,5.252544880E0
4.184618380E-1,1.505982757E0,6.320042610E-1,6.729813576E0
4.208576710E-1,1.029511929E0,1.053440213E0,8.415258408E0
4.232527230E-1,6.224330068E-1,1.517946839E0,1.029691410E1
4.256478270E-1,3.831507266E-1,1.917548299E0,1.184596729E1
4.280437130E-1,4.549354017E-1,2.159522533E0,1.269841099E1
4.304395980E-1,8.138588071E-1,2.250449657E0,1.276062393E1
4.328346500E-1,1.472483277E0,2.209771633E0,1.216690540E1
4.352297540E-1,2.300698996E0,2.051845312E0,1.115174961E1
4.376256400E-1,3.059522867E0,1.852941990E0,1.009591675E1
4.400215250E-1,3.675076485E0,1.709372640E0,9.142974854E0
4.424165770E-1,4.124927044E0,1.604088426E0,8.307580948E0
4.448116810E-1,4.555934429E0,1.556231976E0,7.354639530E0
4.472075670E-1,4.939085007E0,1.532303810E0,6.377769470E0
4.496034000E-1,5.087440014E0,1.537089467E0,5.556732178E0
4.519985040E-1,4.884049892E0,1.501197100E0,5.097011566E0
4.543936080E-1,4.412364960E0,1.352542996E0,4.996512890E0
4.567894940E-1,3.821038723E0,1.199402332E0,5.073082924E0
4.591853270E-1,3.241676569E0,1.063011408E0,5.051547527E0
4.615803790E-1,2.674278498E0,1.027119160E0,4.963013172E0
4.639754830E-1,2.209771633E0,1.022333503E0,4.752145767E0
4.663714210E-1,1.872084618E0,1.058225870E0,4.534399033E0
4.687672540E-1,1.486840129E0,1.132403374E0,4.364508629E0
4.711623060E-1,1.108475089E0,1.218544960E0,4.196712017E0
4.735574110E-1,7.516453862E-1,1.314257860E0,4.055535316E0
4.759532960E-1,3.041875660E-1,1.417448282E0,3.933501244E0
4.783491810E-1,-1.435693651E-1,1.541875124E0,3.794717550E0
4.807442330E-1,-5.769693851E-1,1.678265929E0,3.689433336E0
4.831393380E-1,-1.031904817E0,1.857727647E0,3.667897940E0
4.855352230E-1,-1.412662625E0,2.042274237E0,3.682255030E0
4.879311080E-1,-1.733300924E0,2.178664923E0,3.737289906E0
4.903261610E-1,-2.008774519E0,2.303091764E0,3.837788343E0
4.927212650E-1,-2.389233351E0,2.420340061E0,3.950251102E0
4.951171500E-1,-2.755634308E0,2.506481647E0,4.026821613E0
4.975129830E-1,-3.042773008E0,2.557030201E0,4.134498596E0
4.999080880E-1,-3.277568817E0,2.557030201E0,4.240081787E0
5.023031920E-1,-3.562314749E0,2.518445730E0,4.261617184E0
5.046990770E-1,-3.821038723E0,2.391626120E0,4.326223373E0
5.070949110E-1,-4.010071754E0,2.188236237E0,4.299902439E0
5.094899630E-1,-4.019642830E0,2.142772675E0,4.146462440E0
5.118850670E-1,-4.053142548E0,2.140379906E0,3.864109516E0
5.142810040E-1,-3.986143351E0,2.104487419E0,3.602992773E0
5.166768380E-1,-3.828217030E0,2.044667006E0,3.299104214E0
5.190718900E-1,-3.526422262E0,1.943869352E0,3.016452074E0
5.214669940E-1,-3.239283562E0,1.762014747E0,2.714956284E0
5.238628790E-1,-2.901596546E0,1.525125384E0,2.516052961E0
5.262587650E-1,-2.530709028E0,1.268794179E0,2.315055847E0
5.286538170E-1,-2.164308071E0,9.433703423E-1,2.183450699E0
5.310489210E-1,-1.785943031E0,6.032904387E-1,2.097309113E0
5.334448060E-1,-1.273579836E0,2.249253243E-1,2.178664923E0
5.358406920E-1,-5.315057039E-1,-2.775674164E-1,2.568994284E0
5.382357440E-1,2.874378264E-1,-7.325028181E-1,3.059522867E0
5.406308480E-1,9.290133715E-1,-9.816554785E-1,3.406781197E0
5.430267330E-1,1.177866936E0,-1.187438250E0,4.139284134E0
5.454226190E-1,8.066803217E-1,-1.453340650E0,6.772884369E0
5.478176710E-1,1.015154958E0,-1.706979871E0,1.068963623E1
5.502127750E-1,1.661516190E0,-2.126022816E0,1.227697468E1
5.526086610E-1,2.212164640E0,-2.767598391E0,1.106800079E1
5.550044940E-1,2.712563515E0,-3.464209080E0,9.576375008E0
5.573995980E-1,3.004487991E0,-4.093820572E0,8.961120605E0
5.597947020E-1,3.117249727E0,-4.692325115E0,8.910871506E0
5.621905880E-1,3.064308405E0,-5.204688549E0,9.030512810E0
5.645864210E-1,2.937488794E0,-5.640480995E0,8.987442017E0
5.669814730E-1,2.834597588E0,-6.054738522E0,8.702695847E0
5.693765770E-1,2.813062191E0,-6.423233509E0,8.360222816E0
5.717725150E-1,2.863311291E0,-6.787241459E0,8.053643227E0
5.741683480E-1,2.925524712E0,-7.105785847E0,7.847859859E0
5.765634000E-1,2.896811008E0,-7.407281399E0,7.733004570E0
5.789585040E-1,2.781955481E0,-7.656434059E0,7.694719315E0
5.813543900E-1,2.638386011E0,-7.907680511E0,7.584649563E0
5.837502750E-1,2.472982168E0,-8.231010437E0,7.347461224E0
5.861453270E-1,2.348555326E0,-8.530113220E0,6.923632145E0
5.885404310E-1,2.312663078E0,-8.784051895E0,6.430411816E0
5.909363170E-1,2.295913219E0,-8.903693199E0,5.923133373E0
5.933322020E-1,2.341377020E0,-9.004191399E0,5.410770416E0
5.957272540E-1,2.429911375E0,-9.030512810E0,4.829015255E0
5.981223580E-1,2.504088879E0,-9.011369705E0,4.254438877E0
6.005182440E-1,2.616850615E0,-8.941978455E0,3.598206997E0
6.029141290E-1,2.717349291E0,-8.874979019E0,2.978166819E0
6.053091810E-1,2.786741018E0,-8.827122688E0,2.195414782E0
6.077042860E-1,2.935096025E0,-8.618648529E0,1.738086581E0
6.101001710E-1,3.138785124E0,-8.271688461E0,1.513161182E0
6.124960040E-1,3.351746321E0,-7.917252064E0,1.431805253E0
6.148911080E-1,3.600599766E0,-7.524529934E0,1.402792215E0
6.172862130E-1,3.864109516E0,-7.112964630E0,1.486840129E0
6.196820980E-1,4.203890324E0,-6.708278179E0,1.762014747E0
6.220779310E-1,4.441078663E0,-6.377769470E0,1.857727647E0
6.244729830E-1,4.673182487E0,-6.097809315E0,1.884048700E0
6.268680880E-1,4.829015255E0,-5.851049423E0,1.910369754E0
6.292640250E-1,4.970191956E0,-5.606981754E0,1.917548299E0
6.316598580E-1,5.077868938E0,-5.398806095E0,1.931905150E0
6.340549110E-1,5.192724228E0,-5.214259624E0,1.934298038E0
6.364500150E-1,5.377270699E0,-5.041976452E0,1.888834357E0
6.388459000E-1,5.638088226E0,-4.896014214E0,1.917548299E0
6.412417860E-1,5.954239845E0,-4.778766155E0,1.951047778E0
6.436368380E-1,6.298806667E0,-4.675575256E0,2.023131609E0
6.460319420E-1,6.641279221E0,-4.570291042E0,2.135594130E0
6.484278270E-1,6.947560310E0,-4.496113777E0,2.307877541E0
6.508237130E-1,7.201498985E0,-4.469792843E0,2.492124796E0
6.532187650E-1,7.409674644E0,-4.476971149E0,2.671885490E0
6.556138690E-1,7.565207958E0,-4.476971149E0,2.901596546E0
6.580097540E-1,7.689933777E0,-4.445864677E0,3.162713289E0
6.604055880E-1,7.771289825E0,-4.407579422E0,3.435495138E0
6.628006920E-1,7.950751305E0,-4.340580463E0,3.646063566E0
6.651957960E-1,8.154440880E0,-4.455435753E0,3.701397419E0
6.675916810E-1,8.360222816E0,-4.656432629E0,3.600599766E0
6.699875150E-1,8.544470787E0,-4.946263313E0,3.385245800E0
6.723826190E-1,8.661719322E0,-5.228616714E0,3.049951553E0
6.747777230E-1,8.714659691E0,-5.549553871E0,2.719742060E0
6.771736080E-1,8.726624489E0,-5.858228207E0,2.315055847E0
6.795694420E-1,8.719446182E0,-6.179165363E0,1.886441588E0
6.819645460E-1,8.700303078E0,-6.468996048E0,1.486840129E0
6.843596500E-1,8.692825317E0,-6.748956203E0,1.110867858E0
6.867555360E-1,8.678468704E0,-6.983452797E0,8.476574421E-1
6.891513690E-1,8.726624489E0,-7.179963589E0,6.846463680E-1
6.915464210E-1,8.836693764E0,-7.349853992E0,6.535396576E-1
6.939415250E-1,9.075976372E0,-7.471887589E0,7.109674215E-1
6.963374630E-1,9.375378609E0,-7.541279793E0,8.401798606E-1
6.987332960E-1,9.748658180E0,-7.534101009E0,1.106082320E0
7.011283480E-1,1.018923664E1,-7.529315472E0,1.350150228E0
7.035234520E-1,1.066570759E1,-7.474280834E0,1.673480392E0
7.059193380E-1,1.106560802E1,-7.383353233E0,1.951047778E0
7.083152230E-1,1.137189007E1,-7.246962547E0,2.240878344E0
7.107102750E-1,1.157557869E1,-7.191927433E0,2.542673111E0
7.131053790E-1,1.180528927E1,-7.179963589E0,2.815454960E0
7.155012650E-1,1.208076286E1,-7.189534664E0,3.021237612E0
7.178971500E-1,1.232243824E1,-7.160820961E0,3.358924866E0
7.202922020E-1,1.271755314E1,-7.177570820E0,3.485744476E0
7.226873060E-1,1.324666595E1,-7.208677292E0,3.531208038E0
7.250831920E-1,1.381645679E1,-7.261319637E0,3.516851187E0
7.274790250E-1,1.442931843E1,-7.318747044E0,3.485744476E0
7.298741290E-1,1.508285809E1,-7.354639530E0,3.447459221E0
7.322692330E-1,1.567418480E1,-7.390532017E0,3.428316593E0
7.346651190E-1,1.627029610E1,-7.426424026E0,3.385245800E0
7.370609520E-1,1.680180168E1,-7.459923744E0,3.382853031E0
7.394560560E-1,1.721845245E1,-7.450352192E0,3.416352510E0
7.418511610E-1,1.763001823E1,-7.416852951E0,3.452244759E0
7.442470460E-1,1.797727585E1,-7.313961506E0,3.500101328E0
7.466428790E-1,1.827907181E1,-7.172784805E0,3.535993576E0
7.490379310E-1,1.849921036E1,-6.882954121E0,3.579064369E0
7.514330360E-1,1.873610115E1,-6.770491600E0,3.610171080E0
7.538289730E-1,1.890868187E1,-6.667600155E0,3.612564087E0
7.562248060E-1,1.905943108E1,-6.535995007E0,3.545564890E0
7.586198580E-1,1.919342804E1,-6.320342064E0,3.385245800E0
7.610149630E-1,1.929153442E1,-5.899205208E0,3.330210924E0
7.634109000E-1,1.928674889E1,-5.535196781E0,3.179463148E0
7.658067330E-1,1.921974945E1,-5.362913609E0,2.894418001E0
7.682017860E-1,1.916232109E1,-5.252544880E0,2.506481647E0
7.705968900E-1,1.916950035E1,-5.164010525E0,2.181057930E0
7.729927750E-1,1.916232109E1,-5.027619362E0,1.872084618E0
7.753886610E-1,1.919582176E1,-4.919942379E0,1.661516190E0
7.777837130E-1,1.921974945E1,-4.539184570E0,1.692622900E0
7.801788170E-1,1.911446571E1,-4.438685894E0,1.395613790E0
7.825747020E-1,1.901635933E1,-4.455435753E0,1.024726272E0
7.849705880E-1,1.904746628E1,-4.508078098E0,5.793621540E-1
7.873656400E-1,1.916950035E1,-4.532006264E0,2.679961324E-1
7.897607440E-1,1.931307030E1,-4.462614059E0,7.896314561E-2
7.921566290E-1,1.940429688E1,-4.323830605E0,-1.196411345E-2
7.945525150E-1,1.949283028E1,-3.888037682E0,1.124626622E-1
7.969475670E-1,1.929153442E1,-3.847359657E0,-2.057827413E-1
7.993426710E-1,1.908814430E1,-3.962215185E0,-6.200401783E-1
8.017385560E-1,1.907378769E1,-4.098606110E0,-9.457631707E-1
8.041343900E-1,1.917907143E1,-4.134498596E0,-1.130010486E0
8.065294940E-1,1.922692871E1,-4.117748737E0,-1.149153113E0
8.089245980E-1,1.908814430E1,-4.055535316E0,-1.063011408E0
8.113204830E-1,1.856860352E1,-3.856930971E0,-7.492526174E-1
8.137163170E-1,1.798445511E1,-3.878466368E0,-5.291129351E-1
8.161114210E-1,1.766591072E1,-4.043570995E0,-6.272186637E-1
8.185065250E-1,1.768295860E1,-4.100998878E0,-5.841478109E-1
8.209024110E-1,1.790549278E1,-4.177569389E0,-3.903291821E-1
8.232982440E-1,1.808256149E1,-4.191926003E0,-2.368894368E-1
8.256932960E-1,1.823809433E1,-4.201497555E0,-1.818545163E-1
8.280884000E-1,1.838435555E1,-4.201497555E0,-1.124626622E-1
8.304843380E-1,1.848485374E1,-4.201497555E0,-4.785645381E-2
8.328801710E-1,1.842981911E1,-4.163212299E0,1.938186288E-1
8.352752230E-1,1.834607124E1,-4.524827480E0,1.316052526E-1
8.376703270E-1,1.855185318E1,-4.953442097E0,3.113660514E-1
8.400662130E-1,1.866910172E1,-5.331807137E0,8.234301209E-1
8.424620980E-1,1.880100632E1,-5.321936607E0,1.357328653E0
8.448571500E-1,1.879113579E1,-5.774479389E0,1.417448282E0
8.472522540E-1,1.910968018E1,-6.203093529E0,1.424626827E0
8.496481400E-1,1.948086739E1,-6.559923172E0,1.541875124E0
8.520440250E-1,1.972971916E1,-6.519245148E0,1.960619092E0
8.544390770E-1,1.938993835E1,-7.098607540E0,1.876870275E0
8.568341810E-1,1.926760674E1,-7.754539967E0,1.671087503E0
8.592300670E-1,1.906900215E1,-8.204689980E0,1.728515267E0
8.616259520E-1,1.857578087E1,-8.429615021E0,1.879263043E0
8.640210040E-1,1.798684692E1,-8.501399994E0,2.085345030E0
8.664161080E-1,1.745055580E1,-8.360222816E0,2.496910334E0
8.688119940E-1,1.701715660E1,-8.099106789E0,3.093321562E0
8.712078270E-1,1.672523117E1,-7.929215908E0,3.794717550E0
8.736029310E-1,1.651436424E1,-7.790432453E0,4.484149456E0
8.759980360E-1,1.625593948E1,-7.646862984E0,4.996512890E0
8.783939210E-1,1.571247005E1,-7.596613884E0,5.202295303E0
8.807897540E-1,1.509482288E1,-7.574779034E0,5.147260666E0
8.831848580E-1,1.379252911E1,-7.651648521E0,4.802694321E0
8.855799630E-1,1.264576817E1,-7.577471256E0,4.484149456E0
8.879758480E-1,1.198953724E1,-7.972286701E0,3.706183195E0
8.903716810E-1,1.216211891E1,-8.058428764E0,3.239283562E0
8.927667330E-1,1.184836006E1,-7.800003529E0,3.227319479E0
8.951618380E-1,1.141496086E1,-7.800003529E0,3.090928555E0
8.975577750E-1,1.114457130E1,-7.807182312E0,2.686242580E0
8.999536080E-1,1.080688477E1,-7.910073280E0,2.240878344E0
9.023486610E-1,1.046231747E1,-8.024929047E0,1.819442511E0
9.047437650E-1,1.023470020E1,-8.079963684E0,1.400399446E0
9.071397020E-1,1.012223816E1,-8.084749222E0,1.144367456E0
9.095355360E-1,9.818050385E0,-7.878966808E0,1.063011408E0
9.119305880E-1,9.576375008E0,-7.843074322E0,9.266205430E-1
9.143256920E-1,9.277272224E0,-7.917252064E0,8.476574421E-1
9.167215770E-1,8.953942299E0,-7.890930653E0,7.588238716E-1
9.191174630E-1,8.702695847E0,-8.017750740E0,7.731808424E-1
9.215125150E-1,8.513363838E0,-8.103892326E0,7.731808424E-1
9.239076190E-1,8.393722534E0,-8.231010437E0,9.146564603E-1
9.263035040E-1,8.175975800E0,-8.465507507E0,1.074975610E0
9.286993900E-1,7.943572998E0,-8.707481384E0,1.041476011E0
9.310944420E-1,7.835896015E0,-9.042476654E0,1.029511929E0
9.334895460E-1,7.687541008E0,-9.221938133E0,1.067797065E0
9.358854310E-1,7.412067413E0,-9.329915047E0,7.444669604E-1
9.382813170E-1,7.179963589E0,-9.473484039E0,6.939185411E-2
9.406763690E-1,7.043572426E0,-9.636196136E0,-2.946162820E-1
9.430714730E-1,6.933203697E0,-9.810872078E0,-8.135596663E-2
9.454673580E-1,6.923632145E0,-1.003609657E1,4.429712892E-1
9.478632440E-1,7.009773731E0,-1.035194874E1,9.409775138E-1
9.502582960E-1,7.127321243E0,-1.061545849E1,1.436590910E0
9.526534000E-1,7.223034382E0,-1.087627602E1,1.740479350E0
9.550492860E-1,7.345067978E0,-1.114457130E1,1.941476464E0
9.574451190E-1,7.495816231E0,-1.138385391E1,2.161915302E0
9.598402230E-1,7.783253670E0,-1.158275700E1,2.322234392E0
9.622353270E-1,8.192725182E0,-1.173589802E1,2.470589399E0
9.646312130E-1,8.774480820E0,-1.187946701E1,2.600100994E0
9.670270460E-1,9.329915047E0,-1.203500080E1,2.722134829E0
9.694221500E-1,9.935597420E0,-1.224108219E1,2.834597588E0
9.718172540E-1,1.083559799E1,-1.285633659E1,2.691028118E0
9.742131400E-1,1.180050373E1,-1.316740417E1,2.310270309E0
9.766089730E-1,1.219083309E1,-1.283719444E1,2.233700037E0
9.790040250E-1,1.219083309E1,-1.197278690E1,2.358126640E0
9.813991290E-1,1.187468147E1,-1.085713387E1,2.530709028E0
9.837950670E-1,1.149153042E1,-9.712766647E0,2.164308071E0
9.861909000E-1,1.059631634E1,-8.630612373E0,8.859425783E-1
9.885859520E-1,1.026102161E1,-7.907680511E0,-6.460621208E-2
9.909810560E-1,1.118764210E1,-7.737790108E0,1.283151150E0
9.933769940E-1,1.178136158E1,-7.569993496E0,2.655135870E0
9.957728270E-1,1.153968620E1,-7.304390430E0,4.000500202E0
9.981678790E-1,1.133360481E1,-7.048357964E0,4.958227634E0
1.000562983E0,1.148195934E1,-6.710670948E0,3.921537161E0
1.002958921E0,1.078534889E1,-6.610172749E0,4.622933388E0
1.005354754E0,1.013180923E1,-6.519245148E0,6.088238239E0
1.007749806E0,9.942776680E0,-6.279664040E0,6.193522453E0
1.010144911E0,9.758230209E0,-6.042774677E0,6.026024818E0
1.012540796E0,9.796515465E0,-5.982954025E0,5.767300606E0
1.014936681E0,1.002891827E1,-6.069095612E0,5.590231895E0
1.017331733E0,9.916455269E0,-6.138487339E0,5.152046204E0
1.019726838E0,9.327521324E0,-6.183950901E0,4.603790760E0
1.022122723E0,9.107083321E0,-6.238986015E0,4.098606110E0
1.024518608E0,9.226723671E0,-6.296413898E0,3.677469254E0
1.026913661E0,8.858229637E0,-6.286842346E0,3.258426189E0
1.029308765E0,8.072785378E0,-6.057131290E0,2.545065880E0
1.031704650E0,7.845467091E0,-5.769693375E0,2.449054003E0
1.034100536E0,8.269295692E0,-5.805585861E0,3.083451033E0
1.036495588E0,8.274081230E0,-6.006882191E0,4.074677944E0
1.038890692E0,7.864609718E0,-6.205486298E0,4.646861553E0
1.041286577E0,7.826324463E0,-6.571887493E0,4.864907742E0
1.043682411E0,7.747361660E0,-7.093822002E0,4.790730000E0
1.046077515E0,7.630113125E0,-7.637291908E0,4.833800793E0
1.048472619E0,7.457530975E0,-8.091927528E0,4.898406982E0
1.050868504E0,7.646862984E0,-8.065607071E0,4.599005222E0
1.053264338E0,8.235795975E0,-7.704290867E0,4.481756687E0
1.055659442E0,8.307580948E0,-7.179963589E0,4.000500202E0
1.058054546E0,7.179963589E0,-6.823133945E0,3.356531858E0
1.060450431E0,5.788836002E0,-6.555137634E0,2.671885490E0
1.062846265E0,5.293222904E0,-6.365805626E0,2.250449657E0
1.065241369E0,5.228616714E0,-6.303592205E0,2.099701881E0
1.067636473E0,5.511268616E0,-6.368198395E0,2.472982168E0
1.070032358E0,6.308377743E0,-6.569494724E0,2.906382322E0
1.072428192E0,8.070392609E0,-6.830312252E0,3.576671600E0
1.074823244E0,8.901300430E0,-6.976274490E0,4.340580463E0
1.077218348E0,7.776075363E0,-7.232605457E0,4.541577339E0
1.079614286E0,6.780063152E0,-6.830312252E0,4.244867325E0
1.082010119E0,6.351448536E0,-6.246164322E0,3.703790426E0
1.084405171E0,5.930311680E0,-5.504090309E0,2.171486616E0
1.086800275E0,6.315556049E0,-4.783551693E0,6.320042610E-1
1.089196213E0,6.684350014E0,-4.479363918E0,3.352942765E-1
1.091592046E0,6.643671989E0,-4.498506546E0,3.975076675E-1
1.093987098E0,6.037988663E0,-4.551148891E0,2.679961324E-1
1.096382202E0,5.530411243E0,-4.386044025E0,3.927220106E-1
1.098778088E0,4.711467743E0,-3.856930971E0,-2.129612118E-1
1.101173973E0,4.694717884E0,-3.710968733E0,2.392822690E-2
1.103569025E0,5.456233978E0,-3.911965847E0,1.864906192E0
1.105964129E0,6.164808273E0,-4.254438877E0,4.845765114E0
1.108360015E0,6.198307991E0,-4.539184570E0,6.320342064E0
1.110755900E0,6.792026997E0,-4.998905659E0,6.882954121E0
1.113150952E0,6.648457527E0,-5.082654476E0,5.942276001E0
1.115546056E0,6.234200478E0,-4.970191956E0,3.801896095E0
1.117941942E0,6.428019047E0,-5.020441055E0,3.636492252E0
1.120337827E0,6.720242500E0,-5.142475128E0,3.995714664E0
1.122732879E0,6.947560310E0,-5.202295303E0,3.679862022E0
1.125127983E0,6.638886452E0,-5.046761990E0,2.271985054E0
1.127523869E0,5.987739563E0,-4.407579422E0,-7.803592682E-1
1.129919754E0,5.508875847E0,-3.607778311E0,-3.435495138E0
1.132314806E0,4.814658165E0,-3.571886063E0,-4.179962158E0
1.134709911E0,4.179962158E0,-3.574278831E0,-4.230510235E0
1.137105796E0,4.199104786E0,-3.952643871E0,-3.208176851E0
1.139501629E0,4.771587372E0,-3.787539244E0,-1.441376567E0
1.141896733E0,4.314259052E0,-3.045166016E0,-4.307080805E-2
1.144291838E0,4.967798710E0,-3.045166016E0,1.242473125E0
1.146687723E0,7.445566654E0,-4.412364960E0,5.451447964E0
1.149083556E0,9.176474571E0,-5.949454308E0,1.052692413E1
1.151478661E0,9.511769295E0,-6.557530403E0,1.234397411E1
1.153873765E0,9.303593636E0,-6.550352097E0,1.155882931E1
1.156269650E0,8.714659691E0,-6.363412857E0,9.798908234E0
1.158665483E0,7.151249409E0,-5.348556995E0,6.200700760E0
1.161060536E0,8.190332413E0,-5.518447399E0,5.429912567E0
1.163455640E0,9.459127426E0,-6.076273918E0,8.656932831E0
1.165851577E0,9.648159981E0,-6.413661957E0,1.208554935E1
1.168247411E0,8.070392609E0,-6.107380867E0,1.333041477E1
1.170642463E0,4.179962158E0,-4.656432629E0,8.008178711E0
1.173037567E0,2.233700037E0,-3.607778311E0,2.080559254E0
1.175433504E0,1.850549221E0,-3.122035265E0,-4.716851711E-1
1.177829338E0,1.572981834E0,-2.600100994E0,-1.525125384E0
1.180224390E0,1.302293777E0,-2.164308071E0,-2.693420887E0
1.182619494E0,1.446162224E0,-2.039881229E0,-2.190629244E0
1.185015379E0,7.277171612E-1,-1.970489502E0,-2.935096025E0
1.187411265E0,7.875377536E-1,-2.094916344E0,-2.777169704E0
1.189806317E0,9.074779749E-1,-1.996810555E0,-2.327019930E0
1.192201421E0,1.340578914E0,-2.257628202E0,-9.242277741E-1
1.194597306E0,1.297508121E0,-2.204986095E0,-9.332008660E-2
1.196993192E0,2.683849812E0,-2.734098911E0,2.554637194E0
1.199388244E0,3.308675528E0,-3.129213810E0,4.335794449E0
1.201783348E0,3.634099483E0,-3.370888948E0,4.912764072E0
1.204179233E0,2.760420084E0,-3.030808926E0,3.840181351E0
1.206575119E0,2.054238319E0,-2.805883646E0,3.480958700E0
1.208970171E0,1.034297585E0,-2.691028118E0,3.162713289E0
1.211365275E0,2.273181528E-1,-2.633600473E0,2.638386011E0
1.213761161E0,1.232901812E0,-3.248854876E0,2.978166819E0
1.216157046E0,3.069094181E0,-4.668396950E0,4.342973232E0
1.218552098E0,3.933501244E0,-5.606981754E0,5.214259624E0
1.220947202E0,3.713361740E0,-5.812764645E0,4.872086048E0
1.223343088E0,3.021237612E0,-5.573482037E0,4.508078098E0
1.225738973E0,1.747657895E0,-4.366901398E0,3.236890793E0
1.228134025E0,1.053440213E0,-3.332603693E0,1.872084618E0
1.230529129E0,1.055832982E0,-2.887239695E0,1.278365493E0
1.232925015E0,2.204986095E0,-3.303889751E0,1.750050664E0
1.235320848E0,3.227319479E0,-4.038785458E0,2.374876499E0
1.237715952E0,4.407579422E0,-4.845765114E0,3.093321562E0
1.240111056E0,5.539982796E0,-5.666802406E0,5.123332500E0
1.242506942E0,6.078666687E0,-5.657230854E0,5.640480995E0
1.244902775E0,6.918846607E0,-5.959025860E0,5.843871117E0
1.247297879E0,7.072286606E0,-5.729015827E0,6.332305908E0
1.249692983E0,7.014858723E0,-5.321936607E0,5.889334679E0
1.252088869E0,7.558029652E0,-5.413163185E0,6.097809315E0
1.254484702E0,7.589435101E0,-5.204688549E0,6.071488380E0
1.256879806E0,8.228617668E0,-5.171188831E0,6.313163280E0
1.259274911E0,9.102297783E0,-5.554339409E0,8.736195564E0
1.261670796E0,8.123034477E0,-5.360520840E0,1.203978634E1
1.264066629E0,6.799205780E0,-5.046761990E0,4.002892971E0
1.266461681E0,6.473781586E0,-4.644468784E0,-1.517946839E0
1.268856786E0,5.523232937E0,-3.715754509E0,-2.956631422E0
1.271252723E0,4.721039295E0,-2.836990356E0,-1.900798440E0
1.273648556E0,3.009273529E0,-1.074975610E0,-2.999702215E0
1.276043608E0,3.138785124E0,-2.659921408E0,-1.842473447E-1
1.278438713E0,3.828217030E0,-3.100499868E0,1.572981834E0
1.280834650E0,3.971786499E0,-3.955036640E0,5.762515068E0
1.283230483E0,2.750848770E0,-3.107678413E0,7.947162390E-1
1.285625536E0,1.795514345E0,-2.489732027E0,-1.891227245E0
1.288020640E0,1.390828133E0,-2.264806747E0,-1.345364571E0
1.290416577E0,1.333400369E0,-2.092523336E0,2.392822644E-3
1.292812411E0,1.788335800E0,-2.245664120E0,1.161117196E0
1.295207463E0,2.860918522E0,-2.681456804E0,2.049452543E0
1.297602567E0,3.904787540E0,-3.330210924E0,2.846561670E0
1.299998452E0,4.512863636E0,-3.943072557E0,3.636492252E0
1.302394338E0,4.728217602E0,-4.357329845E0,4.331008911E0
1.304789390E0,4.754538536E0,-4.618147850E0,4.718646049E0
1.307184494E0,4.658825874E0,-4.742574692E0,4.773980141E0
1.309580379E0,4.618147850E0,-4.840979099E0,4.558327198E0
1.311976265E0,4.680361271E0,-4.900799751E0,4.206283092E0
1.314371317E0,4.709074974E0,-4.917549610E0,3.754039526E0
1.316766421E0,4.805087090E0,-4.984548569E0,3.437887907E0
1.319162306E0,4.998905659E0,-5.166403294E0,3.447459221E0
1.321558192E0,5.269294739E0,-5.343770981E0,3.720540047E0
1.323953244E0,5.559125423E0,-5.544768333E0,4.146462440E0
1.326348348E0,5.901597977E0,-5.740979671E0,4.610969067E0
1.328744233E0,6.133701801E0,-5.867799282E0,4.886443138E0
1.331140119E0,6.258128643E0,-5.729015827E0,4.869693279E0
1.333535171E0,6.322734833E0,-5.645267010E0,4.896014214E0
1.335930275E0,6.310770512E0,-5.516054630E0,4.833800793E0
1.338326161E0,6.198307991E0,-5.278865814E0,4.577469826E0
1.340721994E0,6.188736439E0,-5.240580559E0,4.469792843E0
1.343117098E0,6.207879066E0,-5.252544880E0,4.498506546E0
1.345512202E0,6.207879066E0,-5.302793980E0,4.522434711E0
1.347908088E0,6.512066841E0,-5.489733219E0,4.907978535E0
1.350303973E0,6.607779503E0,-5.638088226E0,5.343770981E0
1.352699025E0,6.418447495E0,-5.535196781E0,5.245366573E0
1.355094129E0,6.289235115E0,-5.355735302E0,5.046761990E0
1.357490015E0,6.171987057E0,-5.089832783E0,4.845765114E0
1.359885848E0,6.040381432E0,-5.010869503E0,4.797908306E0
1.362280952E0,5.990132332E0,-5.089832783E0,4.857728958E0
1.364676056E0,6.198307991E0,-4.867300510E0,4.960620403E0
1.367071942E0,6.176772594E0,-4.711467743E0,4.941477776E0
1.369467775E0,6.078666687E0,-4.687539577E0,4.733003139E0
1.371862879E0,5.963811398E0,-4.656432629E0,4.500899315E0
1.374257983E0,5.963811398E0,-4.716253281E0,4.421936035E0
1.376653869E0,5.944668770E0,-4.663611412E0,4.369294167E0
1.379049702E0,5.999703884E0,-4.524827480E0,4.309473515E0
1.381444754E0,6.167201042E0,-4.364508629E0,4.383651257E0
1.383839858E0,6.317949295E0,-4.179962158E0,4.524827480E0
1.386235796E0,6.303592205E0,-4.074677944E0,4.567898273E0
1.388631629E0,6.124130249E0,-4.043570995E0,4.666004181E0
1.391026681E0,5.851049423E0,-4.065106392E0,4.783551693E0
1.393421786E0,5.537590027E0,-4.084249020E0,4.919942379E0
1.395817723E0,5.319543839E0,-4.062713623E0,4.900799751E0
1.398213556E0,5.259723186E0,-3.878466368E0,4.642076015E0
1.400608608E0,5.166403294E0,-3.653541088E0,4.381258488E0
1.403003713E0,4.917549610E0,-3.677469254E0,4.553541660E0
1.405399650E0,4.656432629E0,-3.794717550E0,4.855336189E0
1.407795483E0,4.481756687E0,-3.892823458E0,5.020441055E0
1.410190536E0,4.424329281E0,-4.007678986E0,4.984548569E0
1.412585640E0,4.503292084E0,-4.110570431E0,4.812265396E0
1.414981525E0,4.603790760E0,-4.158426762E0,4.670789719E0
1.417377411E0,4.620540619E0,-4.151247978E0,4.517649174E0
1.419772463E0,4.539184570E0,-4.081856251E0,4.534399033E0
1.422167567E0,3.876073599E0,-3.909573078E0,4.656432629E0
1.424563452E0,3.466601849E0,-3.684647799E0,4.768895626E0
1.426959338E0,3.301496983E0,-3.468994617E0,4.728217602E0
1.429354390E0,3.153141975E0,-3.279961586E0,4.558327198E0
1.431749494E0,2.992523909E0,-2.999702215E0,4.249652863E0
1.434145379E0,2.731706142E0,-2.753241539E0,3.821038723E0
1.436541265E0,2.212164640E0,-2.508874655E0,3.248854876E0
1.438936317E0,1.661516190E0,-2.267199516E0,2.609672308E0
1.441331421E0,1.084546804E0,-1.977667928E0,1.809871197E0
1.443727306E0,1.268794179E0,-1.989632010E0,8.859425783E-1
1.446123192E0,2.145165443E0,-2.530709028E0,9.912267923E-1
1.448518244E0,1.455733418E0,-2.458625317E0,8.524430394E-1
1.450913348E0,1.723729610E0,-2.530709028E0,-6.463612318E-1
1.453309233E0,1.790728688E0,-2.571387053E0,6.439684033E-1
1.455705119E0,3.758825302E0,-2.841775894E0,-1.280758262E0
1.458100171E0,3.713361740E0,-3.964607954E0,-7.947162390E-1
1.460495275E0,4.682754040E0,-5.583053589E0,-3.749253988E0
1.462891161E0,6.681957245E0,-6.830312252E0,-7.785646915E0
1.465287046E0,5.947061539E0,-6.586244106E0,-6.622136593E0
1.467682098E0,4.692325115E0,-5.774479389E0,-2.935096025E0
1.470077202E0,3.978965044E0,-5.185545921E0,1.411765367E-1
1.472473088E0,3.392424345E0,-4.167997837E0,4.191926003E0
1.474868921E0,3.624528170E0,-3.392424345E0,8.484649658E0
1.477264025E0,4.610969067E0,-2.429911375E0,1.266251850E1
1.479659129E0,6.725028038E0,-2.255235434E0,1.530299854E1
1.482055015E0,8.851051331E0,-2.417947292E0,1.633490372E1
1.484450900E0,1.067049313E1,-3.260818958E0,1.673719597E1
1.486845952E0,1.215254784E1,-4.261617184E0,1.585843182E1
1.489241056E0,1.324188042E1,-5.180759907E0,1.474277878E1
1.491636942E0,1.431685638E1,-6.638886452E0,1.367258835E1
1.494032775E0,1.475234985E1,-7.922037601E0,1.190818119E1
1.496427879E0,1.432164192E1,-8.546863556E0,1.020837975E1
1.498822983E0,1.359601784E1,-8.886942863E0,8.810373306E0
1.501218869E0,1.308126259E1,-9.514162064E0,7.771289825E0
1.503614702E0,1.223151112E1,-9.909276962E0,6.349055767E0
1.506009806E0,1.145085239E1,-1.002413273E1,4.781158924E0
1.508404911E0,1.090738297E1,-1.006720352E1,3.526422262E0
1.510800796E0,1.068485069E1,-1.040249729E1,2.384447813E0
1.513196629E0,1.068485069E1,-1.113260746E1,1.460519075E0
1.515591733E0,1.053888798E1,-1.167846966E1,6.822535396E-1
1.517986838E0,1.008634567E1,-1.178375435E1,-1.674975827E-2
1.520382723E0,9.399306297E0,-1.149153042E1,-6.296114326E-1
1.522778556E0,9.068798065E0,-1.102253723E1,-1.611266971E0
1.525173661E0,8.788837433E0,-1.040010452E1,-2.566601276E0
1.527568765E0,8.164011955E0,-9.808479309E0,-2.942274570E0
1.529964650E0,7.654041290E0,-9.320343018E0,-3.416352510E0
1.532360483E0,7.002595425E0,-8.671290398E0,-3.543172121E0
1.534755588E0,6.341877460E0,-7.802396297E0,-3.334996462E0
1.537150692E0,5.592624664E0,-6.787241459E0,-2.978166819E0
1.539546577E0,4.986941338E0,-5.839085579E0,-2.564208508E0
1.541942411E0,4.512863636E0,-4.723432064E0,-2.324627161E0
1.544337463E0,4.421936035E0,-3.636492252E0,-1.544267893E0
1.546732567E0,4.433900356E0,-2.913560629E0,-6.774678826E-1
1.549128504E0,4.869693279E0,-2.453839540E0,3.520440459E-1
1.551524338E0,5.298008442E0,-2.233700037E0,1.419841170E0
1.553919390E0,5.044369221E0,-2.267199516E0,2.475374937E0
1.556314494E0,5.039583683E0,-2.145165443E0,3.569493294E0
1.558710431E0,5.166403294E0,-2.260020971E0,4.304687977E0
1.561106265E0,5.309972763E0,-2.487339020E0,5.080261707E0
1.563501317E0,5.595017433E0,-2.978166819E0,5.831906796E0
1.565896421E0,5.966204166E0,-3.569493294E0,6.164808273E0
1.568292358E0,6.234200478E0,-4.136891365E0,6.425626278E0
1.570688192E0,6.351448536E0,-4.884049892E0,6.380162239E0
1.573083244E0,6.002096653E0,-5.606981754E0,5.853442192E0
1.575478348E0,5.606981754E0,-6.148058891E0,5.228616714E0
1.577874286E0,5.848656654E0,-6.849454880E0,4.785944462E0
1.580270119E0,5.513661385E0,-7.280461788E0,3.643670797E0
1.582665171E0,5.901597977E0,-8.587541580E0,2.525923491E0
1.585060275E0,7.565207958E0,-1.147238827E1,1.199402332E0
1.587456213E0,8.503792763E0,-1.397677612E1,-3.544368446E-1
1.589852046E0,8.573184013E0,-1.536281872E1,-6.631109715E-1
1.592247098E0,8.281260490E0,-1.590868092E1,-5.027918816E-1
1.594642202E0,7.878966808E0,-1.593739510E1,4.785645381E-2
1.597038088E0,7.644470215E0,-1.560239983E1,4.501497746E-1
1.599433973E0,7.776075363E0,-1.529103374E1,4.932205677E-1
1.601829025E0,7.977072716E0,-1.499432373E1,2.153540403E-1
1.604224129E0,8.125427246E0,-1.455374527E1,-2.922234535E-1
1.606620015E0,8.187939644E0,-1.421605873E1,-8.739784956E-1
1.609015900E0,8.072785378E0,-1.379731464E1,-1.369292736E0
1.611410952E0,7.599006653E0,-1.335195065E1,-1.730908036E0
1.613806056E0,7.117750168E0,-1.285633659E1,-2.193022013E0
1.616201942E0,6.736992359E0,-1.249950695E1,-2.408375978E0
1.618597827E0,6.591030121E0,-1.233679581E1,-2.262413740E0
1.620992879E0,6.317949295E0,-1.216451168E1,-1.972882271E0
1.623387983E0,5.805585861E0,-1.194407368E1,-1.778764486E0
1.625783869E0,5.204688549E0,-1.178853989E1,-1.474876046E0
1.628179754E0,4.694717884E0,-1.160907841E1,-1.003190875E0
1.630574806E0,4.467400074E0,-1.107039356E1,-4.549354017E-1
1.632969911E0,3.842574120E0,-1.067527866E1,-2.057827413E-1
1.635365796E0,3.334996462E0,-1.068485069E1,2.632105052E-1
1.637761681E0,2.920739174E0,-1.083799076E1,2.922234535E-1
1.640156733E0,2.829811811E0,-1.041446114E1,3.305086195E-1
1.642551838E0,2.200200319E0,-9.650552750E0,1.491625786E0
1.644947723E0,1.161117196E0,-9.526125908E0,1.541875124E0
1.647343608E0,3.137588799E-1,-9.542876244E0,1.752443433E0
1.649738661E0,-5.338985324E-1,-9.471091270E0,2.149951220E0
1.652133765E0,-1.213759303E0,-9.719944954E0,2.087737799E0
1.654529650E0,-1.460519075E0,-9.916455269E0,2.925524712E0
1.656925536E0,-1.503589988E0,-1.013898754E1,3.064308405E0
1.659320588E0,-1.778764486E0,-1.035673428E1,3.519243956E0
1.661715692E0,-2.032702923E0,-1.074945641E1,3.940679789E0
1.664111577E0,-2.087737799E0,-1.095314598E1,4.206283092E0
1.666507463E0,-2.204986095E0,-1.126660538E1,4.503292084E0
1.668902515E0,-2.214557409E0,-1.140778160E1,5.027619362E0
1.671297619E0,-1.747657895E0,-1.149392319E1,5.113760948E0
1.673693504E0,-9.098708034E-1,-1.154207897E1,4.766502857E0
1.676089390E0,-4.836492836E-1,-1.179811096E1,4.773980141E0
1.678484442E0,6.798607111E-1,-1.158275700E1,3.866502285E0
1.680879546E0,1.505982757E0,-1.171675491E1,3.631706476E0
1.683275431E0,2.482553482E0,-1.170479107E1,2.535494804E0
1.685671317E0,2.791526794E0,-1.168086243E1,2.286342144E0
1.688066369E0,2.994916677E0,-1.159472084E1,1.328614831E0
1.690461473E0,2.906382322E0,-1.140778160E1,5.027918816E-1
1.692857358E0,3.543172121E0,-1.157797146E1,1.232901812E0
1.695253244E0,4.673182487E0,-1.227218914E1,2.650350094E0
1.697648296E0,5.583053589E0,-1.166172028E1,2.951845884E0
1.700043400E0,5.863013744E0,-9.439984322E0,3.526422262E0
1.702439286E0,5.935097694E0,-7.654041290E0,4.216153622E0
1.704835171E0,7.280461788E0,-6.524031162E0,4.347758770E0
1.707230223E0,9.399306297E0,-6.217450619E0,4.108177185E0
1.709625327E0,1.230568886E1,-5.616552830E0,6.655037999E-1
1.712021213E0,9.952347755E0,-4.455435753E0,1.654337764E0
1.714417098E0,9.755837440E0,-3.658326626E0,1.632802367E0
1.716812150E0,1.104646587E1,-3.394817114E0,-3.735794425E-1
1.719207254E0,1.157797146E1,-2.978166819E0,-7.229315639E-1
1.721603140E0,1.226261806E1,-2.415554523E0,-4.980062246E-1
1.723999025E0,1.284676552E1,-2.044667006E0,-3.640081584E-1
1.726394077E0,1.282762337E1,-1.618445396E0,-3.544368446E-1
1.728789181E0,1.278933811E1,-1.328614831E0,-3.305086195E-1
1.731185067E0,1.303579903E1,-1.304686546E0,-6.702894568E-1
1.733580952E0,1.324905872E1,-1.366899967E0,-7.396813035E-1
1.735976004E0,1.322034550E1,-1.467697620E0,-8.931210637E-1
1.738371108E0,1.330170155E1,-1.656730533E0,-8.330013752E-1
1.740766994E0,1.324427319E1,-1.781157374E0,-7.660023570E-1
1.743162879E0,1.309322643E1,-1.972882271E0,-6.655037999E-1
1.745557931E0,1.294008541E1,-2.338984251E0,-5.051847100E-1
1.747953036E0,1.247797203E1,-2.633600473E0,-4.740779996E-1
1.750348921E0,1.166650581E1,-2.903989315E0,-4.692923427E-1
1.752744806E0,1.066331482E1,-3.160320520E0,-5.027918816E-1
1.755139858E0,9.116654396E0,-3.409173965E0,-2.392822690E-2
1.757534963E0,7.730611801E0,-3.665505171E0,3.376871049E-1
1.759930900E0,6.815955162E0,-3.919144392E0,2.440679073E-1
1.762326733E0,6.562315941E0,-4.228117466E0,7.657032460E-2
1.764721786E0,6.756134510E0,-4.587040901E0,-4.307080805E-2
1.767116890E0,7.388139248E0,-5.386841774E0,1.651047617E-1
1.769512827E0,7.431210041E0,-5.740979671E0,4.477569461E-1
1.771908661E0,7.187141895E0,-5.738586903E0,2.656033039E-1
1.774303713E0,7.373782158E0,-5.908776283E0,1.914258152E-1
1.776698817E0,7.462316513E0,-6.102594852E0,7.181459069E-1
1.779094754E0,8.336295128E0,-7.009773731E0,8.763712645E-1
1.781490588E0,8.944371223E0,-7.553243637E0,9.266205430E-1
1.783885640E0,8.867800713E0,-7.263712406E0,8.500502706E-1
1.786280744E0,9.389735222E0,-6.200700760E0,-3.472583890E-1
1.788676681E0,9.602696419E0,-5.382056236E0,-8.955138922E-1
1.791072515E0,9.942776680E0,-4.793122768E0,-8.811569214E-1
1.793467567E0,1.013420200E1,-4.259224415E0,-1.110867858E0
1.795862671E0,9.914062500E0,-3.706183195E0,-1.022333503E0
1.798258608E0,9.435198784E0,-3.492922783E0,-8.234301209E-1
1.800654442E0,9.564411163E0,-4.594219685E0,-8.955138922E-1
1.803049546E0,9.442377090E0,-5.298008442E0,-5.386841893E-1
1.805444650E0,8.853444099E0,-5.834300041E0,-4.070789516E-1
1.807840536E0,8.238189697E0,-6.298806667E0,-7.947162390E-1
1.810236369E0,7.957930088E0,-6.425626278E0,-8.979067206E-1
1.812631473E0,7.431210041E0,-7.089035988E0,-9.672985673E-1
1.815026577E0,7.203891754E0,-7.632505894E0,-1.290329576E0
1.817422463E0,6.602993965E0,-9.111868858E0,-1.635195136E0
1.819818296E0,5.645267010E0,-1.043599701E1,-1.486840129E0
1.822213400E0,5.358128071E0,-1.078534889E1,-2.273181528E-1
1.824608504E0,4.646861553E0,-1.121635628E1,6.056832075E-1
1.827004390E0,4.333401680E0,-1.130967617E1,1.118046403E0
1.829400223E0,4.302295208E0,-1.125942707E1,1.441376567E0
1.831795327E0,3.440280676E0,-1.199193001E1,1.003190875E0
1.834190431E0,2.753241539E0,-1.250668621E1,1.098903775E0
1.836586317E0,1.975275040E0,-1.295922852E1,1.378864050E0
1.838982150E0,1.742872238E0,-1.311236858E1,1.582553029E0
1.841377254E0,1.412662625E0,-1.314347553E1,2.109273195E0
1.843772358E0,1.010369420E0,-1.331366539E1,2.312663078E0
1.846168244E0,5.219344497E-1,-1.225783253E1,2.607279301E0
1.848564077E0,-1.507478207E-1,-1.157557869E1,2.688635349E0
1.850959181E0,-7.492526174E-1,-1.137428284E1,2.456232548E0
1.853354286E0,-1.153938770E0,-1.132403278E1,2.291127682E0
1.855750171E0,-1.261615753E0,-1.131924725E1,2.501696110E0
1.858146056E0,-1.168295622E0,-1.141256714E1,2.863311291E0
1.860541108E0,-1.079761267E0,-1.153729343E1,2.920739174E0
1.862936213E0,-9.337990284E-1,-1.147956657E1,3.081058264E0
1.865332098E0,-8.668000102E-1,-1.137428284E1,2.963809967E0
1.867727983E0,-7.444669604E-1,-1.126899815E1,2.779562712E0
1.870123036E0,-6.200401783E-1,-1.118046379E1,2.441875458E0
1.872518140E0,-2.703889608E-1,-1.097468090E1,2.178664923E0
1.874914025E0,1.459621787E-1,-1.083799076E1,1.764407635E0
1.877309911E0,5.243272781E-1,-1.083559799E1,1.237687469E0
1.879704963E0,9.170492887E-1,-1.092173958E1,7.588238716E-1
1.882100067E0,1.254437327E0,-1.117328548E1,5.386841893E-1
1.884495952E0,1.366899967E0,-1.163539886E1,2.970091105E-1
1.886891838E0,1.494018674E0,-1.216211891E1,1.244267747E-1
1.889286890E0,1.565803289E0,-1.260479164E1,1.100698411E-1
1.891681994E0,1.510768414E0,-1.292572880E1,2.153540403E-1
1.894077879E0,1.513161182E0,-1.307408428E1,3.783650696E-1
1.896473765E0,1.568196177E0,-1.320598793E1,4.956133962E-1
1.898868817E0,1.616052628E0,-1.326820183E1,5.530411601E-1
1.901263921E0,1.644766450E0,-1.325384426E1,6.750751138E-1
1.903659806E0,1.656730533E0,-1.313868999E1,7.995018363E-1
1.906055692E0,1.644766450E0,-1.296879959E1,9.026923180E-1
1.908450744E0,1.599302888E0,-1.275823116E1,9.888339639E-1
1.910845848E0,1.589731574E0,-1.252822113E1,1.079761267E0
1.913241733E0,1.639980793E0,-1.226501083E1,1.122832060E0
1.915637619E0,1.687837243E0,-1.191057396E1,1.149153113E0
1.918032671E0,2.027917147E0,-1.141496086E1,1.036690354E0
1.920427775E0,2.276770830E0,-1.107757282E1,1.034297585E0
1.922823713E0,2.434697151E0,-1.069202900E1,9.672985673E-1
1.925219546E0,2.595315218E0,-1.030409241E1,9.002995491E-1
1.927614650E0,2.717349291E0,-9.861420631E0,8.739784956E-1
1.930009754E0,2.437089920E0,-9.212367058E0,1.158724308E0
1.932405640E0,2.679064035E0,-8.702695847E0,1.077368379E0
1.934801473E0,2.736491680E0,-8.432007790E0,1.122832060E0
1.937196525E0,2.729313374E0,-8.231010437E0,1.141974568E0
1.939591629E0,2.793919563E0,-8.024929047E0,1.417448282E0
1.941987567E0,2.817847729E0,-7.962715626E0,1.620838284E0
1.944383400E0,2.872882605E0,-7.955537319E0,1.704586983E0
1.946778504E0,3.358924866E0,-7.886145115E0,1.637588024E0
1.949173608E0,3.610171080E0,-7.886145115E0,1.651944876E0
1.951569494E0,3.332603693E0,-7.993822098E0,1.790728688E0
1.953965327E0,2.997309446E0,-8.063214302E0,1.860120535E0
1.956360431E0,2.698206663E0,-8.178368568E0,1.919941068E0
1.958755536E0,2.561815739E0,-8.276473999E0,1.872084618E0
1.961151421E0,1.604088426E0,-8.051250458E0,2.269592285E0
1.963547254E0,1.654337764E0,-7.974679470E0,1.879263043E0
1.965942358E0,2.092523336E0,-8.012965202E0,1.390828133E0
1.968337463E0,2.480160713E0,-8.106285095E0,1.120439172E0
1.970733348E0,2.691028118E0,-8.278866768E0,1.000798106E0
1.973129233E0,2.880061150E0,-8.482256889E0,9.218349457E-1
1.975524286E0,2.884846687E0,-8.666504860E0,1.012762189E0
1.977919390E0,2.884846687E0,-8.803194046E0,1.120439172E0
1.980315275E0,3.181855917E0,-9.085547447E0,1.000798106E0
1.982711161E0,3.026023388E0,-9.337093353E0,1.271187067E0
1.985106213E0,2.724527597E0,-9.521340370E0,1.618445396E0
1.987501317E0,2.576172590E0,-9.631410599E0,1.850549221E0
1.989897202E0,2.600100994E0,-9.712766647E0,1.941476464E0
1.992293088E0,2.597707987E0,-9.753444672E0,1.922333837E0
1.994688140E0,2.652743101E0,-9.765408516E0,1.860120535E0
1.997083244E0,2.691028118E0,-9.751050949E0,1.726122379E0
1.999479129E0,2.688635349E0,-9.746265411E0,1.604088426E0
2.001875015E0,2.624029160E0,-9.741479874E0,1.364507079E0
2.004270067E0,2.477767944E0,-9.743872643E0,1.275972724E0
2.006665171E0,2.367697954E0,-9.724730492E0,1.146760225E0
2.009061108E0,2.437089920E0,-9.286844254E0,1.074975610E0
2.011456942E0,2.097309113E0,-9.337093353E0,1.022333503E0
2.013851994E0,2.197807550E0,-9.363413811E0,1.086939692E0
2.016247098E0,2.047059774E0,-9.394520760E0,1.051047325E0
2.018643036E0,1.874477386E0,-9.710372925E0,1.074975610E0
2.021038869E0,2.011167526E0,-9.459127426E0,1.125224829E0
2.023433973E0,1.527518153E0,-9.875777245E0,1.175474167E0
2.025829077E0,1.319043517E0,-9.892526627E0,1.079761267E0
2.028224963E0,6.176473498E-1,-1.045992470E1,9.218349457E-1
2.030620796E0,2.153540403E-1,-1.058195877E1,5.721837282E-1
2.033015900E0,-1.507478207E-1,-1.053649521E1,-5.264209956E-2
2.035411004E0,-5.338985324E-1,-1.050299549E1,-4.860421121E-1
2.037806890E0,-1.010369420E0,-1.007198906E1,-3.879363835E-1
2.040202723E0,-2.164308071E0,-8.848658562E0,6.631109715E-1
2.042597827E0,-3.136392355E0,-7.685148239E0,1.706979871E0
2.044992931E0,-4.074677944E0,-6.514459610E0,3.018844843E0
2.047388817E0,-4.840979099E0,-5.554339409E0,4.062713623E0
2.049784702E0,-5.295615673E0,-4.879264355E0,4.670789719E0
2.052179754E0,-5.449055195E0,-4.491328239E0,4.824229717E0
2.054574858E0,-5.465805054E0,-4.376472473E0,4.450650215E0
2.056970744E0,-5.846263885E0,-4.203890324E0,3.574278831E0
2.059366629E0,-6.030810356E0,-3.988536358E0,2.753241539E0
2.061761681E0,-5.319543839E0,-4.242474556E0,2.276770830E0
2.064156786E0,-4.280759811E0,-4.637290478E0,1.862513304E0
2.066552671E0,-3.222533941E0,-5.010869503E0,1.718943954E0
2.068948556E0,-2.288734913E0,-5.408377171E0,1.637588024E0
2.071343608E0,-1.527518153E0,-5.757729530E0,1.570588946E0
2.073738713E0,-9.601200819E-1,-5.906383514E0,1.479661703E0
2.076134650E0,-7.133602500E-1,-5.843871117E0,1.235294700E0
2.078530483E0,-2.081755698E-1,-5.877370834E0,1.098903775E0
2.080925588E0,2.416750938E-1,-5.903990746E0,8.644071817E-1
2.083320692E0,1.065404296E0,-6.076273918E0,7.325028181E-1
2.085716577E0,1.726122379E0,-6.346662998E0,7.803592682E-1
2.088112411E0,2.604886532E0,-6.784848690E0,6.750751138E-1
2.090507515E0,3.217748165E0,-6.949953556E0,5.841478109E-1
2.092902619E0,3.854538202E0,-7.175177574E0,8.787640929E-1
2.095298504E0,4.390829563E0,-7.316354275E0,1.108475089E0
2.097694338E0,5.518447399E0,-8.015357971E0,1.228116274E0
2.100089442E0,7.254140854E0,-9.006584167E0,9.457631707E-1
2.102484546E0,8.549256325E0,-9.770194054E0,6.942176819E-1
2.104880431E0,9.138189316E0,-1.017248726E1,9.002995491E-1
2.107276317E0,9.930811882E0,-1.084995556E1,1.015154958E0
2.109671369E0,9.849455833E0,-1.117807102E1,7.468597889E-1
2.112066473E0,9.463912964E0,-1.146999550E1,5.626124144E-1
2.114462358E0,9.142974854E0,-1.173111248E1,5.554339290E-1
2.116858244E0,8.805587769E0,-1.187707424E1,3.903291821E-1
2.119253296E0,8.391329765E0,-1.187228870E1,6.080760360E-1
2.121648400E0,8.197511673E0,-1.142213917E1,1.441376567E0
2.124044286E0,8.913264275E0,-1.160190010E1,2.226521492E0
2.126440171E0,9.588339806E0,-1.210947704E1,2.181057930E0
2.128835223E0,1.013420200E1,-1.294247818E1,1.529910922E0
2.131230327E0,1.015095139E1,-1.336630726E1,6.463612318E-1
2.133626265E0,9.758230209E0,-1.349073410E1,-7.896314561E-2
2.136022098E0,9.305986404E0,-1.351226902E1,-2.898306549E-1
2.138417202E0,8.831908226E0,-1.343569946E1,-4.307080805E-2
2.140812306E0,8.479864120E0,-1.332084370E1,6.699903309E-2
2.143208192E0,7.941180229E0,-1.328734398E1,4.214358926E-1
2.145604025E0,7.017251492E0,-1.318176079E1,8.883354068E-1
2.147999129E0,6.296413898E0,-1.309083366E1,1.180259824E0
2.150394233E0,5.870192051E0,-1.270798206E1,1.333400369E0
2.152790119E0,6.885347366E0,-1.170239830E1,8.377870321E-1
2.155186004E0,6.591030121E0,-1.058195877E1,8.138588071E-1
2.157581056E0,5.420341492E0,-9.703194618E0,9.242277741E-1
2.159976161E0,4.934299469E0,-9.090332985E0,1.082154036E0
2.162372046E0,4.709074974E0,-8.831908226E0,1.120439172E0
2.164767931E0,4.570291042E0,-8.731410027E0,9.290133715E-1
2.167162983E0,4.455435753E0,-8.510971069E0,6.678966284E-1
2.169558088E0,4.450650215E0,-8.455936432E0,5.937191248E-1
2.171953973E0,4.376472473E0,-8.388936996E0,3.903291821E-1
2.174349858E0,4.266402721E0,-8.223832130E0,3.903291821E-1
2.176744911E0,4.069892406E0,-8.010572433E0,4.381856322E-1
2.179140015E0,3.651148319E0,-7.797610760E0,4.956133962E-1
2.181535900E0,3.052344322E0,-7.713861942E0,5.195416212E-1
2.183931786E0,2.520838737E0,-7.677969456E0,3.209373355E-1
2.186326838E0,2.082952023E0,-7.670791149E0,2.368894368E-1
2.188721942E0,1.522732496E0,-7.569993496E0,2.922234535E-1
2.191117879E0,1.364507079E0,-7.804789066E0,1.531406492E-1
2.193513713E0,1.922333837E0,-8.719446182E0,-1.674975827E-2
2.195908817E0,2.664707184E0,-9.736694336E0,-1.435693540E-2
2.198303921E0,3.122035265E0,-1.044556808E1,2.105683982E-1
2.200699806E0,3.368496180E0,-1.090738297E1,2.416750938E-1
2.203095640E0,3.423531055E0,-1.116132164E1,2.057827413E-1
2.205490744E0,3.545564890E0,-1.126181984E1,3.496512175E-1
2.207885848E0,3.715754509E0,-1.133839035E1,4.932205677E-1
2.210281733E0,3.619742393E0,-1.159232807E1,3.137588799E-1
2.212677619E0,3.586242914E0,-1.182203960E1,1.459621787E-1
2.215072671E0,3.325425386E0,-1.209512043E1,1.674975827E-2
2.217467775E0,2.841775894E0,-1.242772293E1,-3.496512175E-1
2.219863661E0,2.427518606E0,-1.262154102E1,-2.273181528E-1
2.222259546E0,1.785943031E0,-1.274387455E1,-1.244267747E-1
2.224654598E0,1.086939692E0,-1.258325577E1,-4.546362907E-2
2.227049702E0,5.961119533E-1,-1.195603752E1,3.544368446E-1
2.229445588E0,1.842473447E-1,-1.127617645E1,6.367899179E-1
2.231841473E0,-3.472583890E-1,-1.072074318E1,6.870391965E-1
2.234236525E0,-1.027119160E0,-1.031366348E1,6.726822853E-1
2.236631629E0,-1.695015788E0,-1.004327488E1,8.524430394E-1
2.239027567E0,-2.525923491E0,-9.906884193E0,9.481559992E-1
2.241423400E0,-3.346960783E0,-9.959526062E0,9.816554785E-1
2.243818504E0,-3.962215185E0,-1.009830952E1,8.859425783E-1
2.246213608E0,-4.000500202E0,-1.016291618E1,9.361918569E-1
2.248609494E0,-3.768396616E0,-1.019880867E1,1.058225870E0
2.251005327E0,-3.363710403E0,-1.015095139E1,1.084546804E0
2.253400431E0,-2.990130901E0,-1.006959629E1,1.027119160E0
2.255795536E0,-2.669492722E0,-9.988240242E0,1.034297585E0
2.258191421E0,-2.425125837E0,-9.978668213E0,1.058225870E0
2.260587306E0,-2.243271112E0,-1.002652550E1,1.089332461E0
2.262982358E0,-2.049452543E0,-1.010548782E1,1.103689432E0
2.265377463E0,-1.704586983E0,-1.019880867E1,1.141974568E0
2.267773348E0,-1.326221943E0,-1.032802105E1,1.189831018E0
2.270169233E0,-8.859425783E-1,-1.037827015E1,1.304686546E0
2.272564286E0,-4.860421121E-1,-1.039531898E1,1.467697620E0
2.274959390E0,-1.316052526E-1,-1.046710396E1,1.714158297E0
2.277355327E0,-1.435693540E-2,-1.044556808E1,2.147558212E0
2.279751161E0,-1.746760458E-1,-1.038335514E1,2.420340061E0
2.282146213E0,-5.530411601E-1,-1.025145054E1,2.655135870E0
2.284541317E0,-6.822535396E-1,-1.024427223E1,2.691028118E0
2.286937254E0,-5.841478109E-1,-1.017009449E1,2.659921408E0
2.289333088E0,-2.344966233E-1,-1.003609657E1,2.358126640E0
2.291728192E0,5.982056633E-2,-9.859027863E0,2.114058733E0
2.294123296E0,2.105683982E-1,-9.569196701E0,1.817049742E0
2.296519181E0,3.305086195E-1,-9.178867340E0,1.613659739E0
2.298915067E0,4.118646085E-1,-9.004191399E0,1.333400369E0
2.301310119E0,1.232901812E0,-8.510971069E0,8.018946648E-1
2.303705223E0,1.383649707E0,-8.017750740E0,5.554339290E-1
2.306101108E0,8.859425783E-1,-7.721040249E0,6.511468887E-1
2.308496994E0,7.205387354E-1,-7.673183918E0,5.721837282E-1
2.310892046E0,7.779664397E-1,-7.771289825E0,4.812564552E-1
2.313287150E0,8.500502706E-1,-7.886145115E0,3.783650696E-1
2.315683036E0,1.010369420E0,-8.015357971E0,3.999004960E-1
2.318078921E0,1.134796143E0,-8.094321251E0,4.645066857E-1
2.320473973E0,1.094118118E0,-8.103892326E0,3.975076675E-1
2.322869077E0,1.146760225E0,-8.134998322E0,4.381856322E-1
2.325265015E0,1.151545882E0,-8.125427246E0,5.099703074E-1
2.327660848E0,1.204187989E0,-8.089534760E0,7.061817646E-1
2.330055952E0,1.264008522E0,-8.044071198E0,6.678966284E-1
2.332451056E0,1.252044439E0,-8.046463966E0,6.559324861E-1
2.334846942E0,1.247258782E0,-8.096714020E0,7.444669604E-1
2.337242775E0,1.412662625E0,-8.199904442E0,1.053440213E0
2.339637879E0,1.553839207E0,-8.274081230E0,1.323829174E0
2.342032983E0,1.644766450E0,-8.333902359E0,1.467697620E0
2.344428869E0,1.673480392E0,-8.376973152E0,1.419841170E0
2.346824754E0,1.649552107E0,-8.216653824E0,1.177866936E0
2.349219806E0,1.546660781E0,-7.945965767E0,9.888339639E-1
2.351614911E0,1.503589988E0,-7.783253670E0,9.984052777E-1
2.354010796E0,1.467697620E0,-7.565207958E0,1.070189953E0
2.356406681E0,1.462911963E0,-7.304390430E0,1.086939692E0
2.358801733E0,1.582553029E0,-7.158428192E0,1.328614831E0
2.361196838E0,1.551446438E0,-6.930810928E0,1.398006678E0
2.363592723E0,1.752443433E0,-6.887740135E0,1.494018674E0
2.365988608E0,1.850549221E0,-6.995417118E0,1.153938770E0
2.368383661E0,1.915155411E0,-7.072286606E0,8.572286963E-1
2.370778765E0,1.977667928E0,-7.077072144E0,8.572286963E-1
2.373174702E0,2.092523336E0,-7.237390995E0,8.090731502E-1
2.375570536E0,2.307877541E0,-7.548458099E0,3.903291821E-1
2.377965640E0,2.609672308E0,-7.713861942E0,4.956133962E-1
2.380360744E0,3.030808926E0,-8.084749222E0,6.200401783E-1
2.382756629E0,3.270390272E0,-8.341080666E0,9.720842242E-1
2.385152515E0,3.409173965E0,-8.467900276E0,1.333400369E0
2.387547567E0,3.768396616E0,-9.104690552E0,3.301496983E0
2.389942671E0,4.177569389E0,-1.017966557E1,4.354937077E0
2.392338556E0,4.256831646E0,-1.080449200E1,4.723432064E0
2.394734442E0,4.307080746E0,-1.105364418E1,3.162713289E0
2.397129494E0,4.223331928E0,-1.111585712E1,1.742872238E0
2.399524598E0,4.012464523E0,-1.104885864E1,7.660023570E-1
2.401920483E0,3.849752426E0,-1.108953667E1,2.632105052E-1
2.404316369E0,3.579064369E0,-1.123310566E1,-2.392822644E-3
2.406711421E0,3.212962627E0,-1.141496086E1,-2.922234535E-1
2.409106525E0,2.844168901E0,-1.152532959E1,-3.544368446E-1
2.411502463E0,2.559422970E0,-1.142931747E1,-2.416750938E-1
2.413898296E0,2.288734913E0,-1.131446171E1,1.100698411E-1
2.416293400E0,1.980060697E0,-1.135035419E1,3.783650696E-1
2.418688504E0,1.747657895E0,-1.149631596E1,4.142574072E-1
2.421084390E0,1.639980793E0,-1.158036423E1,6.463612318E-1
2.423480223E0,1.537089467E0,-1.164975643E1,9.074779749E-1
2.425875327E0,1.484447360E0,-1.184118176E1,1.225723386E0
2.428270431E0,1.510768414E0,-1.196321583E1,1.101296663E0
2.430666317E0,1.553839207E0,-1.227458191E1,1.517946839E0
2.433062202E0,1.613659739E0,-1.257847023E1,1.513161182E0
2.435457254E0,1.683051586E0,-1.266251850E1,9.050851464E-1
2.437852358E0,1.771586061E0,-1.265055466E1,7.660023570E-1
2.440248244E0,1.788335800E0,-1.257847023E1,8.572286963E-1
2.442644129E0,1.817049742E0,-1.249472141E1,9.912267923E-1
2.445039181E0,1.805085540E0,-1.242533016E1,1.141974568E0
2.447434286E0,1.817049742E0,-1.242772293E1,1.208973646E0
2.449830223E0,1.819442511E0,-1.246600819E1,1.230509043E0
2.452226056E0,1.872084618E0,-1.252104282E1,1.182652593E0
2.454621161E0,1.955833435E0,-1.255454254E1,1.084546804E0
2.457016265E0,1.994417667E0,-1.255454254E1,9.840483069E-1
2.459412150E0,1.982453585E0,-1.249472141E1,8.401798606E-1
2.461807983E0,1.965703845E0,-1.247797203E1,7.205387354E-1
2.464203088E0,1.898405671E0,-1.246122169E1,6.320042610E-1
2.466598192E0,2.037488461E0,-1.210947704E1,5.482555032E-1
2.468994077E0,2.216950178E0,-1.150857925E1,3.975076675E-1
2.471389963E0,2.267199516E0,-1.082124138E1,2.033899277E-1
2.473785015E0,2.288734913E0,-1.024187946E1,8.135596663E-2
2.476180119E0,2.334198475E0,-9.856635094E0,9.332008660E-2
2.478576004E0,2.396411896E0,-9.672088623E0,2.129612118E-1
2.480971890E0,2.391626120E0,-9.530911446E0,4.405784607E-1
2.483366942E0,2.291127682E0,-9.399306297E0,6.320042610E-1
2.485762046E0,2.114058733E0,-9.325128555E0,7.899305820E-1
2.488157931E0,1.936690807E0,-9.279664993E0,9.002995491E-1
2.490553817E0,1.797907114E0,-9.214759827E0,1.012762189E0
2.492948921E0,1.635195136E0,-9.162117958E0,1.077368379E0
2.495344025E0,1.525125384E0,-9.145368576E0,1.072582722E0
2.497739911E0,1.443769336E0,-9.111868858E0,1.063011408E0
2.500135744E0,1.453340650E0,-9.135796547E0,1.065404296E0
2.502530848E0,1.484447360E0,-9.159725189E0,1.036690354E0
2.504925952E0,1.515554070E0,-9.195617676E0,9.744769931E-1
2.507321838E0,1.558624864E0,-9.209974289E0,8.572286963E-1
2.509717723E0,1.671087503E0,-9.092725754E0,7.827520967E-1
2.512112775E0,1.680658817E0,-9.131011009E0,7.660023570E-1
2.514507879E0,1.812264085E0,-9.200403214E0,7.683951855E-1
2.516903765E0,1.881655931E0,-9.224330902E0,8.042874932E-1
2.519299650E0,1.984846354E0,-9.245866776E0,8.042874932E-1
2.521694702E0,2.025524378E0,-9.267701149E0,8.428717852E-1
2.524089806E0,2.008774519E0,-9.270093918E0,8.763712645E-1
2.526485692E0,2.082952023E0,-9.205188751E0,8.330013752E-1
2.528881577E0,2.377269268E0,-8.228617668E0,4.980062246E-1
2.531276629E0,1.685444474E0,-7.397710323E0,1.220339537E-1
2.533671733E0,1.577767372E0,-7.256533623E0,1.962114573E-1
2.536067671E0,1.989632010E0,-7.290033340E0,7.085745931E-1
2.538463504E0,2.104487419E0,-7.311568737E0,9.050851464E-1
2.540858608E0,2.066202402E0,-7.450352192E0,9.290133715E-1
2.543253713E0,2.068595171E0,-7.704290867E0,1.055832982E0
2.545649598E0,2.008774519E0,-8.012965202E0,1.060618639E0
2.548045483E0,1.864906192E0,-8.235795975E0,9.936196208E-1
2.550440536E0,1.702194214E0,-8.309973717E0,9.290133715E-1
2.552835640E0,1.551446438E0,-8.295617104E0,8.955138922E-1
2.555231525E0,1.606481314E0,-8.147261620E0,9.625129104E-1
2.557627411E0,1.704586983E0,-8.147261620E0,1.022333503E0
2.560022463E0,1.848156333E0,-8.231010437E0,9.050851464E-1
2.562417567E0,2.030309916E0,-8.391329765E0,8.306085467E-1
2.564813452E0,2.221735716E0,-8.604290962E0,7.923234105E-1
2.567209338E0,2.379662037E0,-8.853444099E0,6.535396576E-1
2.569604390E0,2.537887573E0,-9.044869423E0,5.817549825E-1
2.571999494E0,2.655135870E0,-9.212367058E0,5.027918816E-1
2.574395431E0,2.700599432E0,-9.209974289E0,4.286143482E-1
2.576791265E0,2.781955481E0,-9.138189316E0,4.166502357E-1
2.579186369E0,2.844168901E0,-9.052047729E0,4.238287210E-1
2.581581473E0,2.882453918E0,-9.066405296E0,4.692923427E-1
2.583977358E0,2.839383125E0,-9.064012527E0,5.362913609E-1
2.586373244E0,2.736491680E0,-9.066405296E0,5.243272781E-1
2.588768296E0,2.523231506E0,-8.934800148E0,4.956133962E-1
2.591163400E0,2.334198475E0,-8.733802795E0,5.219344497E-1
2.593559286E0,2.236092806E0,-8.556434631E0,5.985047817E-1
2.595955171E0,2.166700840E0,-8.357830048E0,7.372884750E-1
2.598350223E0,2.092523336E0,-8.111070633E0,8.500502706E-1
2.600745327E0,2.032702923E0,-7.833503246E0,8.428717852E-1
2.603141213E0,1.900798440E0,-7.361817837E0,9.768698215E-1
2.605537098E0,1.733300924E0,-7.007380962E0,1.223330617E0
2.607932150E0,1.611266971E0,-6.866204739E0,1.220937729E0
2.610327254E0,1.599302888E0,-6.760920525E0,9.696913958E-1
2.612723192E0,1.738086581E0,-6.413661957E0,1.034297585E0
2.615119025E0,1.910369754E0,-6.200700760E0,1.130010486E0
2.617514129E0,2.006381750E0,-6.131309032E0,1.153938770E0
2.619909233E0,1.872084618E0,-6.210271835E0,1.005583763E0
2.622305119E0,1.683051586E0,-6.250949860E0,8.572286963E-1
2.624701004E0,1.467697620E0,-6.059524059E0,6.224330068E-1
2.627096056E0,1.369292736E0,-6.045167446E0,7.061817646E-1
2.629491161E0,1.084546804E0,-5.441876888E0,8.811569214E-1
2.631887046E0,9.361918569E-1,-4.661218643E0,1.211366415E0
2.634282931E0,8.066803217E-1,-3.888037682E0,1.323829174E0
2.636677983E0,6.128616929E-1,-3.061915636E0,1.376471281E0
2.639073088E0,5.506483316E-1,-2.152343988E0,1.714158297E0
2.641468973E0,4.668995142E-1,-1.606481314E0,1.412662625E0
2.643864858E0,4.549354017E-1,-1.309472203E0,1.173081279E0
2.646259911E0,5.171487927E-1,-1.494018674E0,8.162516356E-1
2.648655015E0,6.990033388E-1,-1.599302888E0,2.440679073E-1
2.651050952E0,8.090731502E-1,-2.176272154E0,-9.266205430E-1
2.653446786E0,9.768698215E-1,-2.348555326E0,-8.306085467E-1
2.655841890E0,1.134796143E0,-2.358126640E0,-3.592225015E-1
2.658236994E0,1.106082320E0,-2.650350094E0,1.770688742E-1
2.660632879E0,1.007976532E0,-3.076272726E0,-7.178467698E-3
2.663028713E0,1.046261668E0,-3.602992773E0,2.009970993E-1
2.665423817E0,8.715856671E-1,-3.797110319E0,-1.651047617E-1
2.667818921E0,8.428717852E-1,-4.175176620E0,-8.135596663E-2
2.670214806E0,7.588238716E-1,-4.788337231E0,7.417750359E-2
2.672610692E0,1.019940615E0,-5.886941910E0,5.291129351E-1
2.675005744E0,1.381256819E0,-7.127321243E0,5.793621540E-1
2.677400848E0,1.491625786E0,-7.991429329E0,3.975076675E-1
2.679796733E0,1.537089467E0,-8.360222816E0,2.970091105E-1
2.682192619E0,1.709372640E0,-8.079963684E0,3.305086195E-1
2.684587671E0,1.683051586E0,-7.833503246E0,2.850449979E-1
2.686982775E0,1.584945917E0,-7.689933777E0,6.272186637E-1
2.689378713E0,1.561017632E0,-7.591827869E0,5.530411601E-1
2.691774546E0,1.644766450E0,-7.689933777E0,5.264209956E-2
2.694169650E0,1.800299883E0,-7.802396297E0,-9.332008660E-2
2.696564754E0,1.745265007E0,-7.802396297E0,-2.679961324E-1
2.698960640E0,1.539482236E0,-7.828717709E0,-6.415755749E-1
2.701356473E0,1.364507079E0,-7.835896015E0,-5.243272781E-1
2.703751577E0,1.211366415E0,-7.718647480E0,-2.201396823E-1
2.706146681E0,1.101296663E0,-7.826324463E0,-3.305086195E-1
2.708542567E0,9.146564603E-1,-7.857431412E0,-6.152545214E-1
2.710938452E0,9.146564603E-1,-7.857431412E0,-9.050851464E-1
2.713333504E0,9.242277741E-1,-7.831110477E0,-1.204187989E0
2.715728608E0,8.787640929E-1,-7.828717709E0,-1.039083242E0
2.718124494E0,8.428717852E-1,-7.922037601E0,-6.535396576E-1
2.720520379E0,8.330013752E-1,-7.950751305E0,-2.922234535E-1
2.722915431E0,8.644071817E-1,-8.561220169E0,-3.640081584E-1
2.725310536E0,1.039083242E0,-9.707980156E0,-3.879363835E-1
2.727706421E0,1.479661703E0,-1.081645584E1,-8.135596663E-2
2.730102306E0,1.508375525E0,-1.150110245E1,-1.914258115E-2
2.732497358E0,1.472483277E0,-1.202303600E1,-2.225325108E-1
2.734892463E0,1.369292736E0,-1.229133129E1,-1.483550072E-1
2.737288400E0,9.337990284E-1,-1.210708427E1,-5.982056633E-2
2.739684233E0,1.722832322E-1,-1.143888855E1,1.555334777E-1
2.742079338E0,-4.884349108E-1,-1.022512913E1,2.416750938E-1
2.744474442E0,-3.807578981E-1,-9.387342453E0,1.627119333E-1
2.746870327E0,1.172483116E-1,-9.423234940E0,4.884349108E-1
2.749266213E0,2.970091105E-1,-1.008395290E1,5.219344497E-1
2.751661265E0,-9.332008660E-2,-1.132164001E1,-1.196411345E-2
2.754056369E0,-3.687937856E-1,-1.227458191E1,3.687937856E-1
2.756452254E0,-8.614161611E-2,-1.266969681E1,5.171487927E-1
2.758848140E0,3.041875660E-1,-1.287308693E1,4.501497746E-1
2.761243192E0,6.032904387E-1,-1.294008541E1,5.315057039E-1
2.763638296E0,7.505387306E0,-1.414427376E1,1.156331539E0
2.766034181E0,3.472583890E-1,-1.262393379E1,1.328614831E0
2.768430067E0,-2.392822644E-3,-1.239661598E1,1.273579836E0
2.770825119E0,3.256033421E0,-1.314108276E1,9.864411354E-1
2.773220223E0,4.704289436E0,-1.362233925E1,6.080760360E-1
2.775616161E0,1.750050664E0,-1.339262867E1,2.656033039E-1
2.778011994E0,3.691826344E0,-1.418255901E1,2.632104978E-2
2.780407098E0,2.906382322E0,-1.441496181E1,-2.009970993E-1
2.782802202E0,1.402792215E0,-1.456331635E1,-3.113660514E-1
2.785198088E0,1.491625786E0,-1.465902996E1,-2.874378264E-1
2.787593921E0,1.891227245E0,-1.454178143E1,-2.129612118E-1
2.789989025E0,1.910369754E0,-1.443649769E1,-1.674975902E-1
2.792384129E0,1.972882271E0,-1.448435402E1,-1.698904037E-1
2.794780015E0,1.996810555E0,-1.462792301E1,6.699903309E-2
2.797175900E0,2.226521492E0,-1.467577934E1,4.429712892E-1
2.799570952E0,2.322234392E0,-1.447717476E1,7.109674215E-1
2.801966056E0,2.312663078E0,-1.410359573E1,6.798607111E-1
2.804361942E0,2.310270309E0,-1.311476135E1,7.037889361E-1
2.806757827E0,2.518445730E0,-1.269841099E1,2.656033039E-1
2.809152879E0,2.432304144E0,-1.333041477E1,1.842473447E-1
2.811547983E0,2.149951220E0,-1.379013634E1,8.066803217E-1
2.813943921E0,1.711765528E0,-1.387627792E1,8.066803217E-1
2.816339754E0,1.527518153E0,-1.390738392E1,6.822535396E-1
2.818734806E0,1.683051586E0,-1.400309753E1,6.750751138E-1
2.821129911E0,1.848156333E0,-1.399831200E1,5.027918816E-1
2.823525848E0,2.123630047E0,-1.385474205E1,5.578267574E-1
2.825921681E0,2.006381750E0,-1.372283745E1,4.549354017E-1
2.828316786E0,1.931905150E0,-1.350748348E1,5.506483316E-1
2.830711890E0,1.975275040E0,-1.300469208E1,6.822535396E-1
2.833107775E0,1.814656854E0,-1.278694534E1,8.258228898E-1
2.835503661E0,1.879263043E0,-1.266491127E1,7.157530785E-1
2.837898713E0,2.147558212E0,-1.253539944E1,5.650052428E-1
2.840293817E0,2.422732830E0,-1.218604755E1,6.487540603E-1
2.842689702E0,2.614457846E0,-1.229372501E1,4.908277392E-1
2.845085588E0,2.631207705E0,-1.245404339E1,4.094717801E-1
2.847480640E0,2.638386011E0,-1.275105286E1,2.584248483E-1
2.849875744E0,2.343769789E0,-1.295683575E1,3.352942765E-1
2.852271681E0,2.492124796E0,-1.350269794E1,3.759722710E-1
2.854667515E0,2.547458887E0,-1.380210018E1,1.818545163E-1
2.857062567E0,2.518445730E0,-1.397438335E1,1.890329868E-1
2.859457671E0,2.767598391E0,-1.413470268E1,-5.024927482E-2
2.861853608E0,2.868097067E0,-1.418734455E1,-2.153540403E-2
2.864249442E0,3.035594702E0,-1.413948822E1,-7.896314561E-2
2.866644546E0,3.028416157E0,-1.359123230E1,1.579262912E-1
2.869039650E0,3.263211966E0,-1.358405399E1,-5.503492057E-2
2.871435536E0,3.157927752E0,-1.340937805E1,-3.349951655E-2
2.873831369E0,2.908775091E0,-1.307886982E1,2.488535494E-1
2.876226473E0,2.899203777E0,-1.292572880E1,1.435693651E-1
2.878621577E0,2.492124796E0,-1.251386452E1,1.794617027E-1
2.881017463E0,2.164308071E0,-1.218604755E1,1.459621787E-1
2.883413348E0,1.879263043E0,-1.185553932E1,2.970091105E-1
2.885808400E0,1.556231976E0,-1.146760273E1,3.017947674E-1
2.888203504E0,1.446162224E0,-1.139103222E1,1.076770201E-1
2.890599390E0,1.453340650E0,-1.141974640E1,8.135596663E-2
2.892995275E0,1.034297585E0,-1.094836044E1,2.632105052E-1
2.895390327E0,4.788636267E-1,-1.045753193E1,2.632105052E-1
2.897785431E0,2.970091105E-1,-1.044078255E1,2.512463629E-1
2.900181369E0,2.153540403E-1,-1.071356392E1,2.009970993E-1
2.902577202E0,3.110669367E-2,-1.082363415E1,2.632105052E-1
2.904972254E0,-5.742774159E-2,-1.093370438E1,2.392822653E-1
2.907367358E0,-2.273181528E-1,-1.109192944E1,3.281157911E-1
2.909763296E0,-2.249253243E-1,-1.127617645E1,3.807578981E-1
2.912159129E0,-3.640081584E-1,-1.126660538E1,4.190430641E-1
2.914554233E0,-4.310071766E-1,-1.113021469E1,4.884349108E-1
2.916949338E0,-3.999004960E-1,-1.108475113E1,5.219344497E-1
2.919345223E0,-4.238287210E-1,-1.107996559E1,3.807578981E-1
2.921741108E0,-4.597210586E-1,-1.120678520E1,2.129612118E-1
2.924136161E0,-4.405784607E-1,-1.127617645E1,1.818545163E-1
2.926531265E0,-3.424727321E-1,-1.130967617E1,1.651047617E-1
2.928927150E0,-2.994019389E-1,-1.125703430E1,1.435693651E-1
2.931323036E0,-3.807578981E-1,-1.118524933E1,1.579262912E-1
2.933718088E0,-3.999004960E-1,-1.119482040E1,1.962114573E-1
2.936113192E0,-4.429712892E-1,-1.125464153E1,2.105683982E-1
2.938509077E0,-4.310071766E-1,-1.116371441E1,1.866401732E-1
2.940904963E0,-4.740779996E-1,-1.107039356E1,1.316052526E-1
2.943300015E0,-4.884349108E-1,-1.096032429E1,8.853443712E-2
2.945695119E0,-3.999004960E-1,-1.104168034E1,5.742774159E-2
2.948091056E0,-3.448655605E-1,-1.103928757E1,5.503492057E-2
2.950486890E0,-3.664009571E-1,-1.099382401E1,3.589234129E-2
2.952881994E0,-3.807578981E-1,-1.099860954E1,-0.000000000E0
2.955277098E0,-1.890329868E-1,-1.105364418E1,-2.632104978E-2
2.957672983E0,-5.742774159E-2,-1.106800079E1,-8.374879509E-2
2.960068817E0,3.349951655E-2,-1.105842972E1,-1.579262912E-1
2.962463921E0,2.009970993E-1,-1.115414238E1,-2.153540403E-1
2.964859025E0,3.305086195E-1,-1.122114182E1,-1.076770201E-1
2.967254911E0,4.310071766E-1,-1.123310566E1,-5.264209956E-2
2.969650796E0,5.602195859E-1,-1.126660538E1,-2.392822644E-3
2.972045848E0,6.655037999E-1,-1.126899815E1,3.349951655E-2
2.974440952E0,8.330013752E-1,-1.132881927E1,6.221338734E-2
2.976836838E0,9.816554785E-1,-1.124507046E1,7.657032460E-2
2.979232723E0,5.985047817E-1,-1.085474110E1,-3.110669367E-2
2.981627775E0,1.746760458E-1,-1.056999493E1,8.374879509E-2
2.984022879E0,-1.316052526E-1,-1.059392357E1,2.874378264E-1
2.986418817E0,-1.986042857E-1,-1.088584709E1,4.812564552E-1
2.988814650E0,-2.464607358E-1,-1.131924725E1,5.434698462E-1
2.991209702E0,-1.890329868E-1,-1.174786186E1,5.650052428E-1
2.993604806E0,-2.153540403E-1,-1.209512043E1,4.860421121E-1
2.996000744E0,-3.065803945E-1,-1.216451168E1,4.046861231E-1
2.998396577E0,-4.549354017E-1,-1.194646645E1,3.592225015E-1
3.000791681E0,-6.152545214E-1,-1.143649578E1,1.986042857E-1
3.003186786E0,-8.524430394E-1,-1.074467087E1,3.589234129E-2
3.005582671E0,-1.232901812E0,-9.959526062E0,-1.483550072E-1
3.007978504E0,-1.438983679E0,-9.128618240E0,-3.137588799E-1
3.010373608E0,-1.515554070E0,-8.489435196E0,-3.017947674E-1
3.012768713E0,-1.230509043E0,-7.864609718E0,-1.698904037E-1
3.015164598E0,-1.034297585E0,-7.318747044E0,2.632104978E-2
3.017560483E0,-8.596215248E-1,-6.933203697E0,2.249253243E-1
3.019955536E0,-7.325028181E-1,-6.768098831E0,3.879363835E-1
3.022350640E0,-5.913262963E-1,-6.725028038E0,3.879363835E-1
3.024746525E0,-5.003990531E-1,-6.964310169E0,3.065803945E-1
3.027142411E0,-4.022932947E-1,-7.325925827E0,2.536391914E-1
3.029537463E0,-2.464607358E-1,-7.742575645E0,2.464607358E-1
3.031932567E0,-3.589234129E-2,-8.144868851E0,2.970091105E-1
3.034328504E0,1.459621787E-1,-8.501399994E0,3.496512175E-1
3.036724338E0,3.305086195E-1,-8.812766075E0,3.400799036E-1
3.039119390E0,5.147559643E-1,-9.064012527E0,3.592225015E-1
3.041514494E0,6.535396576E-1,-9.253045082E0,3.975076675E-1
3.043910431E0,7.660023570E-1,-9.428020477E0,4.357928336E-1
3.046306265E0,8.476574421E-1,-9.526125908E0,4.740779996E-1
3.048701369E0,8.955138922E-1,-9.602696419E0,4.908277392E-1
3.051096473E0,8.715856671E-1,-9.705587387E0,5.338985324E-1
3.053492358E0,8.572286963E-1,-9.801301003E0,5.626124144E-1
3.055888244E0,7.947162390E-1,-9.894919395E0,5.602195859E-1
3.058283296E0,7.396813035E-1,-9.969097137E0,5.458626747E-1
3.060678400E0,6.990033388E-1,-1.005523872E1,5.530411601E-1
3.063074286E0,6.750751138E-1,-1.011984539E1,5.315057039E-1
3.065470171E0,6.248258352E-1,-1.017009449E1,4.884349108E-1
3.067865223E0,5.793621540E-1,-1.018445110E1,4.477569461E-1
3.070260327E0,5.626124144E-1,-1.020120144E1,4.405784607E-1
3.072656213E0,5.003990531E-1,-1.018684387E1,4.357928336E-1
3.075052098E0,4.262215197E-1,-1.017727280E1,4.597210586E-1
3.077447150E0,3.640081584E-1,-1.016291618E1,4.597210586E-1
3.079842254E0,2.826521695E-1,-1.011984539E1,4.549354017E-1
3.082238192E0,2.536391914E-1,-1.007198906E1,4.357928336E-1
3.084634025E0,2.273181528E-1,-9.997811317E0,4.214358926E-1
3.087029077E0,1.818545163E-1,-9.930811882E0,3.975076675E-1
3.089424181E0,1.459621787E-1,-9.890133858E0,3.664009571E-1
3.091820119E0,1.220339537E-1,-9.892526627E0,3.855435550E-1
3.094215952E0,8.614161611E-2,-9.870991707E0,3.687937856E-1
3.096611056E0,5.264209956E-2,-9.902098656E0,3.687937856E-1
3.099006161E0,6.699903309E-2,-9.875777245E0,3.137588799E-1
3.101402046E0,5.982056633E-2,-9.820742607E0,3.017947674E-1
3.103797931E0,-3.589234129E-2,-9.770194054E0,3.161516786E-1
3.106192983E0,-9.092725813E-2,-9.717552185E0,3.352942765E-1
3.108588088E0,-1.196411327E-1,-9.688838005E0,3.329014480E-1
3.110983973E0,-8.853443712E-2,-9.715159416E0,3.185445070E-1
3.113379858E0,-1.124626622E-1,-9.731908798E0,2.826521695E-1
3.115774911E0,-1.028913707E-1,-9.789336205E0,2.826521695E-1
3.118170015E0,-5.503492057E-2,-9.899705887E0,3.305086195E-1
3.120565900E0,-2.153540403E-2,-9.930811882E0,3.137588799E-1
3.122961786E0,1.435693540E-2,-9.954740524E0,2.946162820E-1
3.125356838E0,-1.124626622E-1,-1.001934624E1,3.376871049E-1
3.127751942E0,-5.503492057E-2,-1.011745262E1,3.257229924E-1
3.130147879E0,1.579262912E-1,-1.009830952E1,2.177468538E-1
3.132543713E0,2.009970993E-1,-1.005284595E1,1.770688742E-1
3.134938765E0,1.148554832E-1,-1.000259686E1,1.962114573E-1
3.137333869E0,9.571290575E-3,-9.971489906E0,2.656033039E-1
3.139729806E0,2.632104978E-2,-9.988240242E0,2.703889608E-1
3.142125640E0,4.307080805E-2,-1.000977516E1,2.536391914E-1
3.144520744E0,0.000000000E0,-9.961918831E0,2.297109663E-1
3.146915848E0,-3.589234129E-2,-9.911669731E0,1.962114573E-1
3.149311733E0,-4.307080805E-2,-9.868598938E0,1.698904037E-1
3.151707567E0,-6.699903309E-2,-9.875777245E0,1.627119333E-1
3.154102671E0,-1.411765367E-1,-9.882955551E0,1.674975902E-1
3.156497775E0,-1.555334777E-1,-9.880562782E0,1.459621787E-1
3.158893661E0,-1.531406492E-1,-9.892526627E0,1.363908947E-1
3.161289546E0,-1.627119333E-1,-9.892526627E0,1.411765367E-1
3.163684598E0,-1.579262912E-1,-9.906884193E0,1.028913707E-1
3.166079702E0,-1.363908947E-1,-9.964311600E0,7.178468257E-2
3.168475588E0,-1.244267747E-1,-9.981060982E0,6.939185411E-2
3.170871473E0,-1.028913707E-1,-1.000498962E1,4.067798331E-2
3.173266525E0,-8.135596663E-2,-1.001695347E1,3.110669367E-2
3.175661629E0,-7.657032460E-2,-1.000977516E1,4.546362907E-2
3.178057567E0,-5.264209956E-2,-1.002173901E1,4.546362907E-2
3.180453400E0,-5.024927482E-2,-1.000738239E1,7.657032460E-2
3.182848504E0,-2.392822690E-2,-1.000498962E1,8.853443712E-2
3.185243608E0,-5.024927482E-2,-9.983454704E0,1.004985496E-1
3.187639494E0,-3.110669367E-2,-9.981060982E0,1.555334777E-1
3.190035327E0,-4.307080805E-2,-9.966704369E0,1.770688742E-1
3.192430431E0,-3.110669367E-2,-9.957133293E0,1.962114573E-1
3.194825536E0,-1.914258115E-2,-9.928419113E0,1.962114573E-1
3.197221421E0,-4.785645287E-3,-9.940383911E0,2.105683982E-1
3.199617254E0,-4.785645287E-3,-9.935597420E0,2.321037948E-1
3.202012358E0,1.196411345E-2,-9.937990189E0,2.440679073E-1
3.204407463E0,1.435693540E-2,-9.926026344E0,2.679961324E-1
3.206803348E0,1.196411345E-2,-9.930811882E0,2.751746178E-1
3.209199233E0,3.589234129E-2,-9.926026344E0,2.994019389E-1
3.211594286E0,4.785645381E-2,-9.926026344E0,3.089732230E-1
3.213989390E0,4.785645381E-2,-9.921240807E0,3.089732230E-1
3.216385275E0,4.546362907E-2,-9.918848038E0,2.898306549E-1
3.218781161E0,7.178468257E-2,-9.902098656E0,2.922234535E-1
3.221176213E0,6.699903309E-2,-9.890133858E0,2.775674164E-1
3.223571317E0,5.982056633E-2,-9.875777245E0,2.970091105E-1
3.225967254E0,4.785645381E-2,-9.878170013E0,2.775674164E-1
3.228363088E0,5.982056633E-2,-9.880562782E0,2.679961324E-1
3.230758140E0,6.699903309E-2,-9.878170013E0,2.656033039E-1
3.233153244E0,5.264209956E-2,-9.894919395E0,2.488535494E-1
3.235549181E0,7.178468257E-2,-9.873384476E0,2.368894368E-1
3.237945015E0,6.221338734E-2,-9.866206169E0,2.392822653E-1
3.240340119E0,5.503492057E-2,-9.863813400E0,2.344966233E-1
3.242735223E0,6.699903309E-2,-9.854242325E0,2.321037948E-1
3.245131108E0,6.460621208E-2,-9.847063065E0,2.153540403E-1
3.247526994E0,5.503492057E-2,-9.839884758E0,2.057827413E-1
3.249922046E0,5.503492057E-2,-9.854242325E0,2.153540403E-1
3.252317150E0,5.024927482E-2,-9.861420631E0,2.081755698E-1
3.254713036E0,5.982056633E-2,-9.859027863E0,2.297109663E-1
3.257108921E0,6.939185411E-2,-9.868598938E0,2.129612118E-1
3.259503973E0,6.221338734E-2,-9.866206169E0,2.201396823E-1
3.261899077E0,7.896314561E-2,-9.892526627E0,2.368894368E-1
3.264294963E0,8.135596663E-2,-9.899705887E0,2.584248483E-1
3.266690848E0,7.896314561E-2,-9.906884193E0,2.703889608E-1
3.269085900E0,9.332008660E-2,-9.911669731E0,2.850449979E-1
3.271481004E0,8.135596663E-2,-9.906884193E0,2.898306549E-1
3.273876890E0,1.004985496E-1,-9.914062500E0,2.799602449E-1
3.276272775E0,1.004985496E-1,-9.911669731E0,3.065803945E-1
3.278667827E0,1.196411327E-1,-9.914062500E0,2.994019389E-1
3.281062931E0,1.268195957E-1,-9.923633575E0,3.065803945E-1
3.283458869E0,1.148554832E-1,-9.928419113E0,3.017947674E-1
3.285854702E0,1.363908947E-1,-9.926026344E0,2.874378264E-1
3.288249806E0,1.435693651E-1,-9.916455269E0,2.970091105E-1
3.290644911E0,1.579262912E-1,-9.904491425E0,2.874378264E-1
3.293040796E0,1.507478207E-1,-9.904491425E0,2.560320199E-1
3.295436629E0,1.459621787E-1,-9.904491425E0,2.536391914E-1
3.297831733E0,1.579262912E-1,-9.909276962E0,2.368894368E-1
3.300226838E0,1.818545163E-1,-9.914062500E0,2.273181528E-1
3.302622723E0,1.722832322E-1,-9.904491425E0,2.033899277E-1
3.305018608E0,1.842473447E-1,-9.892526627E0,2.057827413E-1
3.307413661E0,1.627119333E-1,-9.882955551E0,1.674975902E-1
3.309808765E0,1.746760458E-1,-9.880562782E0,1.603191197E-1
3.312204650E0,1.770688742E-1,-9.873384476E0,1.387837082E-1
3.314600536E0,1.938186288E-1,-9.880562782E0,1.363908947E-1
3.316995588E0,1.770688742E-1,-9.880562782E0,1.124626622E-1
3.319390692E0,1.938186288E-1,-9.894919395E0,1.148554832E-1
3.321786577E0,1.914258152E-1,-9.887741089E0,1.148554832E-1
3.324182463E0,1.746760458E-1,-9.880562782E0,1.124626622E-1
3.326577515E0,1.842473447E-1,-9.880562782E0,9.571290761E-2
3.328972619E0,1.674975902E-1,-9.899705887E0,1.052841991E-1
3.331368556E0,1.435693651E-1,-9.918848038E0,1.076770201E-1
3.333764390E0,1.292124242E-1,-9.916455269E0,1.076770201E-1
3.336159494E0,1.220339537E-1,-9.894919395E0,9.092725813E-2
3.338554598E0,1.100698411E-1,-9.916455269E0,1.148554832E-1
3.340950483E0,1.172483116E-1,-9.926026344E0,1.172483116E-1
3.343346317E0,1.004985496E-1,-9.930811882E0,1.268195957E-1
3.345741421E0,1.028913707E-1,-9.942776680E0,1.172483116E-1
3.348136525E0,1.028913707E-1,-9.959526062E0,1.363908947E-1
3.350532411E0,8.135596663E-2,-9.949954987E0,1.507478207E-1
3.352928296E0,7.178468257E-2,-9.942776680E0,1.627119333E-1
3.355323348E0,5.264209956E-2,-9.942776680E0,1.579262912E-1
3.357718452E0,6.460621208E-2,-9.945169449E0,1.651047617E-1
3.360114338E0,7.178468257E-2,-9.933204651E0,1.842473447E-1
3.362510223E0,4.546362907E-2,-9.921240807E0,1.603191197E-1
3.364905275E0,5.742774159E-2,-9.930811882E0,1.627119333E-1
3.367300379E0,7.417750359E-2,-9.923633575E0,1.651047617E-1
3.369696265E0,9.092725813E-2,-9.935597420E0,1.651047617E-1
3.372092150E0,6.939185411E-2,-9.921240807E0,1.866401732E-1
3.374487202E0,7.657032460E-2,-9.916455269E0,1.627119333E-1
3.376882306E0,7.417750359E-2,-9.921240807E0,2.009970993E-1
3.379278192E0,6.939185411E-2,-9.909276962E0,2.081755698E-1
3.381674077E0,8.374879509E-2,-9.906884193E0,2.177468538E-1
3.384069129E0,1.004985496E-1,-9.911669731E0,1.938186288E-1
3.386464233E0,1.076770201E-1,-9.918848038E0,1.914258152E-1
3.388860171E0,1.100698411E-1,-9.923633575E0,2.009970993E-1
3.391256004E0,1.076770201E-1,-9.906884193E0,2.105683982E-1
3.393651056E0,9.571290761E-2,-9.902098656E0,2.057827413E-1
3.396046161E0,1.339980662E-1,-9.904491425E0,2.081755698E-1
3.398442098E0,1.244267747E-1,-9.909276962E0,2.225325108E-1
3.400837931E0,1.339980662E-1,-9.914062500E0,2.392822653E-1
3.403233036E0,1.124626622E-1,-9.892526627E0,2.368894368E-1
3.405628140E0,1.196411327E-1,-9.892526627E0,2.464607358E-1
3.408024025E0,1.196411327E-1,-9.885348320E0,2.727817893E-1
3.410419911E0,9.810572863E-2,-9.885348320E0,2.994019389E-1
3.412814963E0,1.076770201E-1,-9.875777245E0,2.994019389E-1
3.415210067E0,8.135596663E-2,-9.868598938E0,3.161516786E-1
3.417605952E0,7.896314561E-2,-9.863813400E0,2.970091105E-1
3.420001838E0,7.896314561E-2,-9.878170013E0,3.113660514E-1
3.422396890E0,6.460621208E-2,-9.861420631E0,3.089732230E-1
3.424791994E0,5.503492057E-2,-9.859027863E0,3.209373355E-1
3.427187879E0,3.349951655E-2,-9.849455833E0,3.209373355E-1
3.429583765E0,1.914258115E-2,-9.849455833E0,3.185445070E-1
3.431978817E0,1.196411345E-2,-9.859027863E0,3.089732230E-1
3.434373921E0,-1.196411345E-2,-9.861420631E0,3.041875660E-1
3.436769858E0,-2.392822690E-2,-9.854242325E0,3.161516786E-1
3.439165692E0,-9.571290575E-3,-9.878170013E0,3.352942765E-1
3.441560744E0,-7.178467698E-3,-9.885348320E0,3.520440459E-1
3.443955848E0,-2.392822690E-2,-9.873384476E0,3.257229924E-1
3.446351786E0,-2.153540403E-2,-9.875777245E0,3.376871049E-1
3.448747619E0,-5.024927482E-2,-9.863813400E0,3.161516786E-1
3.451142723E0,-6.221338734E-2,-9.863813400E0,3.041875660E-1
3.453537827E0,-8.374879509E-2,-9.894919395E0,3.041875660E-1
3.455933713E0,-8.853443712E-2,-9.916455269E0,2.970091105E-1
3.458329546E0,-7.417750359E-2,-9.935597420E0,2.946162820E-1
3.460724650E0,-8.614161611E-2,-9.916455269E0,2.679961324E-1
3.463119754E0,-8.374879509E-2,-9.926026344E0,2.656033039E-1
3.465515640E0,-9.092725813E-2,-9.926026344E0,2.656033039E-1
3.467911525E0,-9.332008660E-2,-9.957133293E0,2.560320199E-1
3.470306577E0,-6.939185411E-2,-9.928419113E0,2.440679073E-1
3.472701681E0,-8.614161611E-2,-9.935597420E0,2.273181528E-1
3.475097567E0,-9.332008660E-2,-9.930811882E0,2.105683982E-1
3.477493452E0,-8.374879509E-2,-9.959526062E0,2.201396823E-1
3.479888504E0,-8.853443712E-2,-9.940383911E0,1.962114573E-1
3.482283608E0,-9.332008660E-2,-9.942776680E0,2.057827413E-1
3.484679494E0,-7.657032460E-2,-9.954740524E0,1.890329868E-1
3.487075379E0,-7.178468257E-2,-9.945169449E0,1.842473447E-1
3.489470431E0,-6.221338734E-2,-9.945169449E0,1.890329868E-1
3.491865536E0,-6.939185411E-2,-9.949954987E0,2.057827413E-1
3.494261473E0,-6.460621208E-2,-9.976275444E0,2.057827413E-1
3.496657306E0,-5.742774159E-2,-9.985847473E0,2.081755698E-1
3.499052358E0,-4.546362907E-2,-9.983454704E0,2.129612118E-1
3.501447463E0,-5.264209956E-2,-9.995418549E0,2.105683982E-1
3.503843400E0,-7.896314561E-2,-9.949954987E0,2.009970993E-1
3.506239233E0,-1.028913707E-1,-9.921240807E0,1.890329868E-1
3.508634338E0,-1.076770201E-1,-9.918848038E0,1.818545163E-1
3.511029442E0,-1.004985496E-1,-9.952347755E0,1.674975902E-1
3.513425327E0,-1.196411327E-1,-9.990633011E0,1.818545163E-1
3.515821161E0,-1.268195957E-1,-1.000020409E1,1.962114573E-1
3.518216265E0,-1.363908947E-1,-9.988240242E0,2.033899277E-1
3.520611369E0,-1.698904037E-1,-9.964311600E0,2.201396823E-1
3.523007254E0,-2.273181528E-1,-9.981060982E0,2.440679073E-1
3.525403088E0,-2.033899277E-1,-9.971489906E0,2.368894368E-1
3.527798192E0,-1.627119333E-1,-9.954740524E0,1.698904037E-1
3.530193296E0,-2.057827413E-1,-9.906884193E0,1.698904037E-1
3.532589181E0,-2.033899277E-1,-9.861420631E0,1.914258152E-1
3.534985067E0,-2.177468538E-1,-9.868598938E0,1.962114573E-1
3.537380119E0,-2.129612118E-1,-9.923633575E0,2.249253243E-1
3.539775223E0,-2.392822653E-1,-9.933204651E0,2.321037948E-1
3.542171108E0,-2.850449979E-1,-9.887741089E0,2.344966233E-1
3.544566994E0,-2.751746178E-1,-9.868598938E0,2.488535494E-1
3.546962046E0,-2.608176768E-1,-9.866206169E0,2.368894368E-1
3.549357150E0,-2.632105052E-1,-9.868598938E0,2.368894368E-1
3.551753036E0,-2.703889608E-1,-9.878170013E0,2.249253243E-1
3.554148921E0,-2.512463629E-1,-9.868598938E0,2.321037948E-1
3.556543973E0,-2.584248483E-1,-9.878170013E0,2.464607358E-1
3.558939077E0,-2.751746178E-1,-9.887741089E0,2.560320199E-1
3.561335015E0,-2.488535494E-1,-9.904491425E0,2.464607358E-1
3.563730848E0,-2.440679073E-1,-9.911669731E0,2.656033039E-1
3.566125900E0,-2.344966233E-1,-9.906884193E0,2.392822653E-1
3.568521004E0,-2.201396823E-1,-9.906884193E0,2.536391914E-1
3.570916942E0,-2.392822653E-1,-9.887741089E0,2.225325108E-1
3.573312775E0,-2.153540403E-1,-9.894919395E0,2.368894368E-1
3.575707879E0,-1.842473447E-1,-9.902098656E0,2.344966233E-1
3.578102983E0,-1.651047617E-1,-9.918848038E0,2.225325108E-1
3.580498869E0,-1.770688742E-1,-9.923633575E0,2.273181528E-1
3.582894702E0,-1.531406492E-1,-9.928419113E0,2.321037948E-1
3.585289806E0,-1.220339537E-1,-9.928419113E0,2.249253243E-1
3.587684911E0,-1.316052526E-1,-9.930811882E0,2.273181528E-1
3.590080796E0,-1.196411327E-1,-9.918848038E0,2.129612118E-1
3.592476681E0,-1.052841991E-1,-9.937990189E0,2.344966233E-1
3.594871733E0,-1.220339537E-1,-9.940383911E0,2.129612118E-1
3.597266838E0,-1.124626622E-1,-9.926026344E0,1.914258152E-1
3.599662723E0,-8.374879509E-2,-9.899705887E0,2.201396823E-1
3.602058608E0,-6.460621208E-2,-9.909276962E0,2.201396823E-1
3.604453661E0,-3.589234129E-2,-9.923633575E0,2.129612118E-1
3.606848765E0,-4.546362907E-2,-9.928419113E0,2.081755698E-1
3.609244650E0,-1.196411345E-2,-9.954740524E0,2.153540403E-1
3.611640536E0,-4.785645287E-3,-9.976275444E0,2.153540403E-1
3.614035588E0,7.178467698E-3,-9.981060982E0,1.890329868E-1
3.616430692E0,-4.785645287E-3,-9.966704369E0,1.698904037E-1
3.618826577E0,2.632104978E-2,-9.983454704E0,1.698904037E-1
3.621222463E0,4.067798331E-2,-1.000020409E1,1.866401732E-1
3.623617515E0,3.110669367E-2,-9.976275444E0,1.890329868E-1
3.626012619E0,3.828516230E-2,-9.935597420E0,1.698904037E-1
3.628408556E0,4.307080805E-2,-9.940383911E0,1.698904037E-1
3.630804390E0,7.896314561E-2,-9.923633575E0,1.603191197E-1
3.633199442E0,9.810572863E-2,-9.937990189E0,1.674975902E-1
3.635594546E0,1.028913707E-1,-9.954740524E0,1.603191197E-1
3.637990483E0,1.052841991E-1,-9.945169449E0,1.579262912E-1
3.640386317E0,1.148554832E-1,-9.940383911E0,1.627119333E-1
3.642781421E0,1.172483116E-1,-9.961918831E0,1.531406492E-1
3.645176525E0,1.339980662E-1,-9.961918831E0,1.411765367E-1
3.647572411E0,1.435693651E-1,-9.945169449E0,1.459621787E-1
3.649968296E0,1.339980662E-1,-9.930811882E0,1.316052526E-1
3.652363348E0,1.483550072E-1,-9.909276962E0,1.363908947E-1
3.654758452E0,1.770688742E-1,-9.902098656E0,1.244267747E-1
3.657154338E0,2.081755698E-1,-9.892526627E0,1.196411327E-1
3.659550223E0,2.033899277E-1,-9.894919395E0,1.004985496E-1
3.661945275E0,2.297109663E-1,-9.906884193E0,1.244267747E-1
3.664340379E0,2.297109663E-1,-9.914062500E0,1.220339537E-1
3.666736265E0,2.464607358E-1,-9.914062500E0,1.316052526E-1
3.669132150E0,2.679961324E-1,-9.942776680E0,1.100698411E-1
3.671527202E0,2.679961324E-1,-9.935597420E0,8.853443712E-2
3.673922306E0,2.584248483E-1,-9.899705887E0,1.076770201E-1
3.676318192E0,2.922234535E-1,-9.892526627E0,1.004985496E-1
3.678714077E0,2.922234535E-1,-9.856635094E0,9.092725813E-2
3.681109129E0,3.281157911E-1,-9.835099220E0,6.939185411E-2
3.683504233E0,3.329014480E-1,-9.830313683E0,4.546362907E-2
3.685900171E0,3.400799036E-1,-9.813264847E0,4.307080805E-2
3.688296004E0,3.616153300E-1,-9.818050385E0,5.503492057E-2
3.690691056E0,3.640081584E-1,-9.825528145E0,7.417750359E-2
3.693086161E0,3.735794425E-1,-9.818050385E0,8.374879509E-2
3.695482098E0,3.831507266E-1,-9.827920914E0,7.657032460E-2
3.697877931E0,3.735794425E-1,-9.832706451E0,6.460621208E-2
3.700272983E0,3.951148391E-1,-9.851848602E0,8.853443712E-2
3.702668088E0,4.118646085E-1,-9.875777245E0,9.571290761E-2
3.705064025E0,4.190430641E-1,-9.899705887E0,9.810572863E-2
3.707459858E0,4.142574072E-1,-9.921240807E0,8.374879509E-2
3.709854963E0,4.238287210E-1,-9.923633575E0,7.178468257E-2
3.712250067E0,4.262215197E-1,-9.933204651E0,6.699903309E-2
3.714645952E0,4.525425732E-1,-9.930811882E0,6.699903309E-2
3.717041786E0,4.501497746E-1,-9.942776680E0,5.264209956E-2
3.719436890E0,4.501497746E-1,-9.952347755E0,2.632104978E-2
3.721831994E0,4.310071766E-1,-9.926026344E0,4.785645381E-2
3.724227879E0,4.238287210E-1,-9.935597420E0,5.742774159E-2
3.726623765E0,4.190430641E-1,-9.952347755E0,5.982056633E-2
3.729018817E0,4.142574072E-1,-9.969097137E0,5.264209956E-2
3.731413921E0,3.831507266E-1,-9.937990189E0,6.699903309E-2
3.733809806E0,3.664009571E-1,-9.949954987E0,7.178468257E-2
3.736205692E0,3.616153300E-1,-9.961918831E0,6.221338734E-2
3.738600744E0,3.711866140E-1,-9.961918831E0,6.460621208E-2
3.740995848E0,3.448655605E-1,-9.988240242E0,5.503492057E-2
3.743391733E0,3.305086195E-1,-9.961918831E0,4.546362907E-2
3.745787619E0,3.161516786E-1,-9.966704369E0,2.871387079E-2
3.748182671E0,3.161516786E-1,-9.964311600E0,5.264209956E-2
3.750577775E0,2.946162820E-1,-9.997811317E0,5.264209956E-2
3.752973661E0,2.799602449E-1,-9.993025780E0,5.503492057E-2
3.755369546E0,2.464607358E-1,-9.993025780E0,3.828516230E-2
3.757764598E0,2.416750938E-1,-1.000259686E1,6.699903309E-2
3.760159702E0,2.297109663E-1,-1.002652550E1,6.460621208E-2
3.762555640E0,2.129612118E-1,-1.004327488E1,5.742774159E-2
3.764951473E0,1.674975902E-1,-1.005763149E1,4.307080805E-2
3.767346525E0,1.244267747E-1,-1.001695347E1,4.546362907E-2
3.769741629E0,9.092725813E-2,-1.001216793E1,7.178468257E-2
3.772137567E0,7.657032460E-2,-1.002652550E1,8.374879509E-2
3.774533400E0,7.896314561E-2,-1.005523872E1,7.896314561E-2
3.776928504E0,4.546362907E-2,-1.006720352E1,7.896314561E-2
3.779323608E0,7.178467698E-3,-1.008156013E1,5.742774159E-2
3.781719494E0,2.632104978E-2,-1.007438183E1,5.982056633E-2
3.784115327E0,-1.435693540E-2,-1.007438183E1,4.785645381E-2
3.786510431E0,-1.076770201E-1,-1.003848934E1,3.349951655E-2
3.788905536E0,-1.387837082E-1,-1.001456070E1,1.196411345E-2
3.791301421E0,-1.483550072E-1,-1.002413273E1,3.589234129E-2
3.793697254E0,-1.292124242E-1,-1.005284595E1,6.221338734E-2
3.796092358E0,-2.129612118E-1,-1.006241703E1,5.264209956E-2
3.798487463E0,-2.536391914E-1,-1.000738239E1,4.067798331E-2
3.800883348E0,-2.249253243E-1,-9.969097137E0,5.982056633E-2
3.803279233E0,-2.177468538E-1,-9.945169449E0,7.417750359E-2
3.805674286E0,-2.344966233E-1,-9.940383911E0,2.392822690E-2
3.808069390E0,-2.608176768E-1,-9.978668213E0,3.589234129E-2
3.810465275E0,-2.994019389E-1,-9.945169449E0,2.871387079E-2
3.812861161E0,-3.041875660E-1,-9.942776680E0,4.785645287E-3
3.815256213E0,-2.751746178E-1,-1.005045319E1,5.024927482E-2
3.817651317E0,-3.424727321E-1,-1.015813065E1,1.722832322E-1
3.820047202E0,-4.262215197E-1,-1.007916737E1,1.579262912E-1
3.822443088E0,-4.214358926E-1,-1.001934624E1,-4.307080805E-2
3.824838140E0,-3.137588799E-1,-9.990633011E0,-1.100698411E-1
3.827233244E0,-2.225325108E-1,-1.001456070E1,-4.546362907E-2
3.829629129E0,-2.033899277E-1,-9.930811882E0,-4.307080805E-2
3.832025015E0,-2.009970993E-1,-9.767801285E0,7.178467698E-3
3.834420067E0,-1.794617027E-1,-9.779765129E0,1.196411327E-1
3.836815171E0,-2.440679073E-1,-9.791728973E0,1.411765367E-1
3.839211056E0,-1.866401732E-1,-9.899705887E0,8.614161611E-2
3.841606942E0,-1.818545163E-1,-9.880562782E0,5.503492057E-2
3.844001994E0,-2.177468538E-1,-9.806086540E0,1.172483116E-1
3.846397098E0,-1.387837082E-1,-9.803693771E0,1.244267747E-1
3.848793036E0,-1.028913707E-1,-9.866206169E0,1.292124242E-1
3.851188869E0,-1.866401732E-1,-9.937990189E0,1.100698411E-1
3.853583921E0,-1.674975902E-1,-1.000020409E1,1.411765367E-1
3.855979025E0,-2.105683982E-1,-1.000738239E1,1.698904037E-1
3.858374963E0,-1.794617027E-1,-1.004566765E1,1.962114573E-1
3.860770796E0,-1.938186288E-1,-9.993025780E0,2.009970993E-1
3.863165900E0,-1.986042857E-1,-1.000498962E1,2.129612118E-1
3.865561004E0,-2.033899277E-1,-9.988240242E0,2.129612118E-1
3.867956890E0,-1.292124242E-1,-1.000498962E1,2.297109663E-1
3.870352723E0,-8.853443712E-2,-1.001695347E1,2.273181528E-1
3.872747827E0,-9.571290761E-2,-9.940383911E0,2.201396823E-1
3.875142931E0,-4.307080805E-2,-9.933204651E0,1.818545163E-1
3.877538817E0,3.110669367E-2,-9.933204651E0,1.914258152E-1
3.879934650E0,1.674975827E-2,-9.873384476E0,1.651047617E-1
3.882329754E0,8.374879509E-2,-9.868598938E0,1.746760458E-1
3.884724858E0,8.374879509E-2,-9.827920914E0,1.292124242E-1
3.887120744E0,1.220339537E-1,-9.823135376E0,1.435693651E-1
3.889516629E0,1.076770201E-1,-9.779765129E0,1.483550072E-1
3.891911681E0,1.339980662E-1,-9.782157898E0,1.100698411E-1
3.894306786E0,1.507478207E-1,-9.767801285E0,1.411765367E-1
3.896702671E0,1.627119333E-1,-9.763015747E0,1.579262912E-1
3.899098556E0,1.627119333E-1,-9.758230209E0,1.339980662E-1
3.901493608E0,2.009970993E-1,-9.758230209E0,1.507478207E-1
3.903888713E0,2.249253243E-1,-9.741479874E0,1.698904037E-1
3.906284598E0,2.464607358E-1,-9.748658180E0,1.770688742E-1
3.908680483E0,2.273181528E-1,-9.688838005E0,1.770688742E-1
3.911075536E0,3.017947674E-1,-9.710372925E0,1.794617027E-1
3.913470640E0,3.735794425E-1,-9.784550667E0,1.746760458E-1
3.915866525E0,3.951148391E-1,-9.794121742E0,1.531406492E-1
3.918262411E0,4.477569461E-1,-9.786943436E0,1.459621787E-1
3.920657463E0,4.405784607E-1,-9.794121742E0,1.627119333E-1
3.923052567E0,4.190430641E-1,-9.794121742E0,1.459621787E-1
3.925448504E0,5.027918816E-1,-9.849455833E0,1.698904037E-1
3.927844338E0,5.338985324E-1,-9.885348320E0,1.842473447E-1
3.930239390E0,5.673980713E-1,-9.870991707E0,2.033899277E-1
3.932634494E0,5.937191248E-1,-9.902098656E0,1.770688742E-1
3.935030431E0,5.913262963E-1,-9.940383911E0,1.674975902E-1
3.937426265E0,5.506483316E-1,-9.930811882E0,1.722832322E-1
3.939821317E0,6.056832075E-1,-9.945169449E0,1.818545163E-1
3.942216421E0,6.296114326E-1,-9.959526062E0,1.651047617E-1
3.944612358E0,6.439684033E-1,-9.981060982E0,1.531406492E-1
3.947008192E0,6.439684033E-1,-9.995418549E0,1.603191197E-1
3.949403296E0,6.104688644E-1,-9.945169449E0,1.531406492E-1
3.951798400E0,5.650052428E-1,-9.918848038E0,1.316052526E-1
3.954194286E0,5.817549825E-1,-9.923633575E0,1.435693651E-1
3.956590119E0,5.913262963E-1,-9.954740524E0,1.579262912E-1
3.958985223E0,5.673980713E-1,-9.942776680E0,1.722832322E-1
3.961380327E0,5.338985324E-1,-9.890133858E0,1.555334777E-1
3.963776213E0,4.908277392E-1,-9.868598938E0,1.555334777E-1
3.966172046E0,5.003990531E-1,-9.885348320E0,1.579262912E-1
3.968567150E0,4.908277392E-1,-9.875777245E0,1.674975902E-1
3.970962254E0,4.381856322E-1,-9.859027863E0,1.698904037E-1
3.973358140E0,4.046861231E-1,-9.868598938E0,1.507478207E-1
3.975754025E0,3.855435550E-1,-9.851848602E0,1.507478207E-1
3.978149077E0,3.783650696E-1,-9.866206169E0,1.244267747E-1
3.980544181E0,3.472583890E-1,-9.854242325E0,1.579262912E-1
3.982940067E0,3.089732230E-1,-9.844670296E0,1.555334777E-1
3.985335952E0,3.065803945E-1,-9.863813400E0,1.435693651E-1
3.987731004E0,3.305086195E-1,-9.902098656E0,1.244267747E-1
3.990126108E0,2.970091105E-1,-9.892526627E0,8.614161611E-2
3.992521994E0,2.560320199E-1,-9.880562782E0,9.810572863E-2
3.994917879E0,2.464607358E-1,-9.870991707E0,8.853443712E-2
3.997312931E0,2.632105052E-1,-9.882955551E0,6.221338734E-2
3.999708036E0,2.416750938E-1,-9.885348320E0,5.742774159E-2
4.002103921E0,2.225325108E-1,-9.856635094E0,2.392822690E-2
4.004499806E0,2.153540403E-1,-9.847063065E0,-9.571290575E-3
4.006894858E0,1.531406492E-1,-9.827920914E0,-2.632104978E-2
4.009289963E0,1.244267747E-1,-9.803693771E0,-4.307080805E-2
4.011685900E0,1.124626622E-1,-9.813264847E0,-1.674975827E-2
4.014081733E0,9.092725813E-2,-9.810872078E0,-1.435693540E-2
4.016476786E0,7.178468257E-2,-9.863813400E0,-2.392822644E-3
4.018871890E0,4.307080805E-2,-9.859027863E0,-1.196411345E-2
4.021267827E0,6.221338734E-2,-9.859027863E0,-7.178467698E-3
4.023663661E0,8.374879509E-2,-9.880562782E0,0.000000000E0
4.026058713E0,7.178468257E-2,-9.904491425E0,1.196411345E-2
4.028453817E0,5.503492057E-2,-9.909276962E0,4.785645287E-3
4.030849754E0,7.657032460E-2,-9.911669731E0,7.178467698E-3
4.033245588E0,1.004985496E-1,-9.904491425E0,0.000000000E0
4.035640692E0,1.459621787E-1,-9.897313118E0,2.871387079E-2
4.038035796E0,2.057827413E-1,-9.923633575E0,3.349951655E-2
4.040431681E0,1.770688742E-1,-9.935597420E0,2.153540403E-2
4.042827515E0,1.555334777E-1,-9.897313118E0,2.871387079E-2
4.045222619E0,1.866401732E-1,-9.875777245E0,3.828516230E-2
4.047617723E0,2.703889608E-1,-9.870991707E0,1.435693540E-2
4.050013608E0,3.592225015E-1,-9.873384476E0,-3.110669367E-2
4.052409442E0,5.841478109E-1,-9.930811882E0,1.435693540E-2
4.054804546E0,8.090731502E-1,-1.006002426E1,5.742774159E-2
4.057199650E0,8.691928387E-1,-1.007438183E1,-9.571290575E-3
4.059595536E0,8.524430394E-1,-9.993025780E0,3.110669367E-2
4.061991369E0,8.258228898E-1,-9.961918831E0,1.363908947E-1
4.064386473E0,7.133602500E-1,-9.969097137E0,2.440679073E-1
4.066781577E0,4.812564552E-1,-9.887741089E0,2.512463629E-1
4.069177463E0,3.017947674E-1,-9.820742607E0,1.986042857E-1
4.071573348E0,3.137588799E-1,-9.779765129E0,1.052841991E-1
4.073968400E0,4.956133962E-1,-9.847063065E0,9.332008660E-2
4.076363504E0,6.008976102E-1,-9.961918831E0,7.896314561E-2
4.078759390E0,5.578267574E-1,-1.003848934E1,1.172483116E-1
4.081155275E0,4.070789516E-1,-1.005523872E1,1.698904037E-1
4.083550327E0,2.632105052E-1,-1.002652550E1,1.818545163E-1
4.085945431E0,1.746760458E-1,-1.006002426E1,1.387837082E-1
4.088341317E0,1.483550072E-1,-1.009591675E1,4.785645381E-2
4.090737202E0,1.004985496E-1,-1.010788059E1,1.435693540E-2
4.093132254E0,-2.392822644E-3,-1.005523872E1,3.828516230E-2
4.095527358E0,-9.810572863E-2,-9.995418549E0,5.503492057E-2
4.097923244E0,-7.896314561E-2,-9.949954987E0,1.028913707E-1
4.100319129E0,-1.196411327E-1,-9.926026344E0,1.435693651E-1
4.102714181E0,-1.603191197E-1,-9.926026344E0,1.339980662E-1
4.105109286E0,-2.057827413E-1,-9.868598938E0,1.531406492E-1
4.107505171E0,-1.627119333E-1,-9.839884758E0,1.651047617E-1
4.109901056E0,2.392822690E-2,-9.772586823E0,2.273181528E-1
4.112296108E0,2.679961324E-1,-9.849455833E0,2.368894368E-1
4.114691213E0,4.166502357E-1,-9.909276962E0,2.225325108E-1
4.117087098E0,4.477569461E-1,-9.969097137E0,2.057827413E-1
4.119482983E0,3.759722710E-1,-9.990633011E0,2.081755698E-1
4.121878036E0,2.898306549E-1,-9.976275444E0,1.339980662E-1
4.124273140E0,3.065803945E-1,-9.916455269E0,1.603191197E-1
4.126669077E0,3.257229924E-1,-9.830313683E0,1.746760458E-1
4.129064911E0,3.568296731E-1,-9.758230209E0,1.674975902E-1
4.131459963E0,3.903291821E-1,-9.731908798E0,1.411765367E-1
4.133855067E0,4.334000051E-1,-9.755837440E0,1.651047617E-1
4.136251004E0,4.597210586E-1,-9.796515465E0,1.962114573E-1
4.138646838E0,4.381856322E-1,-9.784550667E0,1.674975902E-1
4.141041890E0,5.075774789E-1,-9.786943436E0,1.148554832E-1
4.143436994E0,5.626124144E-1,-9.801301003E0,1.268195957E-1
4.145832931E0,5.697908998E-1,-9.810872078E0,1.004985496E-1
4.148228765E0,5.721837282E-1,-9.791728973E0,3.828516230E-2
4.150623869E0,5.937191248E-1,-9.779765129E0,-3.349951655E-2
4.153018973E0,6.320042610E-1,-9.791728973E0,-1.004985496E-1
4.155414858E0,6.535396576E-1,-9.763015747E0,-1.627119333E-1
4.157810692E0,6.798607111E-1,-9.751050949E0,-1.674975902E-1
4.160205796E0,6.942176819E-1,-9.755837440E0,-1.651047617E-1
4.162600900E0,5.889334679E-1,-9.719944954E0,-1.483550072E-1
4.164996786E0,4.716851711E-1,-9.686445236E0,-7.896314561E-2
4.167392619E0,4.405784607E-1,-9.686445236E0,-7.657032460E-2
4.169787723E0,3.711866140E-1,-9.693623543E0,-7.657032460E-2
4.172182827E0,3.089732230E-1,-9.672088623E0,-1.914258115E-2
4.174578713E0,2.703889608E-1,-9.669695854E0,-9.571290575E-3
4.176974598E0,3.161516786E-1,-9.691230774E0,1.674975827E-2
4.179369650E0,3.137588799E-1,-9.717552185E0,7.178467698E-3
4.181764754E0,2.946162820E-1,-9.746265411E0,1.914258115E-2
4.184160640E0,2.850449979E-1,-9.763015747E0,5.982056633E-2
4.186556525E0,2.994019389E-1,-9.801301003E0,6.460621208E-2
4.188951577E0,3.496512175E-1,-9.801301003E0,4.307080805E-2
4.191346681E0,2.922234535E-1,-9.803693771E0,7.896314561E-2
4.193742567E0,3.400799036E-1,-9.842277527E0,6.939185411E-2
4.196138452E0,2.874378264E-1,-9.856635094E0,1.148554832E-1
4.198533504E0,3.017947674E-1,-9.870991707E0,1.172483116E-1
4.200928608E0,3.281157911E-1,-9.882955551E0,6.699903309E-2
4.203324494E0,3.400799036E-1,-9.894919395E0,6.939185411E-2
4.205720379E0,3.065803945E-1,-9.856635094E0,6.939185411E-2
4.208115431E0,3.735794425E-1,-9.851848602E0,5.742774159E-2
4.210510536E0,4.477569461E-1,-9.899705887E0,3.828516230E-2
4.212906421E0,4.405784607E-1,-9.873384476E0,2.392822690E-2
4.215302306E0,3.807578981E-1,-9.870991707E0,2.632104978E-2
4.217697358E0,6.439684033E-1,-9.933204651E0,4.546362907E-2
4.220092463E0,7.731808424E-1,-1.008156013E1,3.828516230E-2
4.222488348E0,6.487540603E-1,-1.010070229E1,2.632104978E-2
4.224884233E0,5.817549825E-1,-1.007198906E1,7.896314561E-2
4.227279286E0,5.530411601E-1,-1.001456070E1,8.614161611E-2
4.229674390E0,5.817549825E-1,-1.000977516E1,4.307080805E-2
4.232070327E0,8.282157183E-1,-1.012463093E1,4.785645381E-2
4.234466161E0,7.875377536E-1,-1.016291618E1,9.571290575E-3
4.236861213E0,7.348956466E-1,-1.014616585E1,3.110669367E-2
4.239256317E0,7.301099896E-1,-1.013420200E1,-2.392822644E-3
4.241652254E0,9.337990284E-1,-1.016052341E1,4.307080805E-2
4.244048088E0,1.041476011E0,-1.026580715E1,5.503492057E-2
4.246443140E0,1.106082320E0,-1.037109184E1,5.503492057E-2
4.248838244E0,1.015154958E0,-1.041924667E1,3.828516230E-2
4.251234181E0,8.907282352E-1,-1.039053345E1,9.810572863E-2
4.253630015E0,7.229315639E-1,-1.030648518E1,5.742774159E-2
4.256025119E0,6.702894568E-1,-1.028495026E1,2.153540403E-2
4.258420223E0,6.774678826E-1,-1.024666500E1,-2.392822644E-3
4.260816108E0,6.870391965E-1,-1.024905777E1,-4.307080805E-2
4.263211942E0,6.583253145E-1,-1.023709393E1,-7.178467698E-3
4.265606994E0,5.291129351E-1,-1.014138031E1,2.392822644E-3
4.268002098E0,2.850449979E-1,-1.001456070E1,4.785645287E-3
4.270398036E0,1.196411327E-1,-1.001934624E1,-2.153540403E-2
4.272793869E0,1.124626622E-1,-1.017966557E1,-5.024927482E-2
4.275188973E0,5.503492057E-2,-1.031844902E1,5.742774159E-2
4.277584077E0,-1.220339537E-1,-1.038574791E1,1.292124242E-1
4.279979963E0,-2.512463629E-1,-1.039292622E1,1.986042857E-1
4.282375796E0,-2.874378264E-1,-1.035434151E1,2.826521695E-1
4.284770900E0,-1.770688742E-1,-1.021316528E1,4.166502357E-1
4.287166004E0,-6.221338734E-2,-1.022512913E1,3.305086195E-1
4.289561890E0,5.742774159E-2,-1.022034359E1,1.842473447E-1
4.291957723E0,1.698904037E-1,-1.018205833E1,2.871387079E-2
4.294352827E0,3.568296731E-1,-1.019402313E1,-1.052841991E-1
4.296747931E0,4.166502357E-1,-1.021077251E1,-7.896314561E-2
4.299143817E0,3.329014480E-1,-1.021316528E1,-3.110669367E-2
4.301539650E0,1.794617027E-1,-1.018445110E1,5.742774159E-2
4.303934754E0,7.178467698E-3,-1.018923664E1,4.546362907E-2
4.306329858E0,-2.440679073E-1,-1.023230743E1,-9.571290575E-3
4.308725744E0,-2.225325108E-1,-1.017248726E1,-9.571290575E-3
4.311121629E0,-1.459621787E-1,-1.002173901E1,-7.896314561E-2
4.313516681E0,-2.826521695E-1,-9.935597420E0,-1.579262912E-1
4.315911786E0,-3.161516786E-1,-9.873384476E0,-1.531406492E-1
4.318307671E0,-4.334000051E-1,-9.779765129E0,-1.459621787E-1
4.320703556E0,-7.540382147E-1,-9.774979591E0,-1.794617027E-1
4.323098608E0,-6.343970895E-1,-9.774979591E0,-2.368894368E-1
4.325493713E0,-5.530411601E-1,-9.722337723E0,-2.679961324E-1
4.327889598E0,-6.631109715E-1,-9.638588905E0,-2.416750938E-1
4.330285483E0,-7.707880139E-1,-9.573982239E0,-2.799602449E-1
4.332680536E0,-9.098708034E-1,-9.617053032E0,-3.687937856E-1
4.335075640E0,-7.348956466E-1,-9.557232857E0,-4.286143482E-1
4.337471525E0,-6.224330068E-1,-9.595518112E0,-4.046861231E-1
4.339867411E0,-7.229315639E-1,-9.569196701E0,-2.727817893E-1
4.342262463E0,-8.114659786E-1,-9.557232857E0,-2.057827413E-1
4.344657567E0,-9.337990284E-1,-9.535696983E0,-1.531406492E-1
4.347053452E0,-9.529415965E-1,-9.540482521E0,-7.896314561E-2
4.349449338E0,-9.840483069E-1,-9.514162064E0,-4.067798331E-2
4.351844390E0,-9.553344250E-1,-9.530911446E0,-1.196411345E-2
4.354239494E0,-8.931210637E-1,-9.571589470E0,-1.914258115E-2
4.356635379E0,-8.258228898E-1,-9.602696419E0,-3.110669367E-2
4.359031265E0,-7.683951855E-1,-9.643374443E0,-9.571290761E-2
4.361426317E0,-7.085745931E-1,-9.686445236E0,-1.627119333E-1
4.363821421E0,-7.037889361E-1,-9.681659698E0,-1.722832322E-1
4.366217306E0,-7.109674215E-1,-9.700801849E0,-1.555334777E-1
4.368613192E0,-7.133602500E-1,-9.765408516E0,-1.100698411E-1
4.371008244E0,-7.157530785E-1,-9.803693771E0,-9.332008660E-2
4.373403348E0,-7.037889361E-1,-9.823135376E0,-1.411765367E-1
4.375799286E0,-7.348956466E-1,-9.837491989E0,-1.746760458E-1
4.378195119E0,-7.612167001E-1,-9.842277527E0,-1.914258152E-1
4.380590171E0,-8.330013752E-1,-9.835099220E0,-1.818545163E-1
4.382985275E0,-8.596215248E-1,-9.839884758E0,-2.081755698E-1
4.385381213E0,-9.146564603E-1,-9.844670296E0,-2.273181528E-1
4.387777046E0,-9.242277741E-1,-9.851848602E0,-2.153540403E-1
4.390172098E0,-9.433703423E-1,-9.870991707E0,-2.273181528E-1
4.392567202E0,-9.481559992E-1,-9.899705887E0,-2.105683982E-1
4.394963140E0,-9.649057388E-1,-9.923633575E0,-1.842473447E-1
4.397358973E0,-9.744769931E-1,-9.933204651E0,-2.129612118E-1
4.399754025E0,-9.912267923E-1,-9.921240807E0,-2.033899277E-1
4.402149129E0,-9.744769931E-1,-9.949954987E0,-1.866401732E-1
4.404545067E0,-1.010369420E0,-9.949954987E0,-1.722832322E-1
4.406940900E0,-1.003190875E0,-9.954740524E0,-2.033899277E-1
4.409336004E0,-9.936196208E-1,-9.957133293E0,-1.818545163E-1
4.411731108E0,-9.553344250E-1,-9.971489906E0,-1.483550072E-1
4.414126994E0,-9.433703423E-1,-9.959526062E0,-1.531406492E-1
4.416522827E0,-9.242277741E-1,-9.966704369E0,-1.339980662E-1
4.418917931E0,-9.122636318E-1,-9.921240807E0,-8.135596663E-2
4.421313036E0,-9.146564603E-1,-9.902098656E0,-3.589234129E-2
4.423708921E0,-8.763712645E-1,-9.909276962E0,-6.939185411E-2
4.426104754E0,-8.548358679E-1,-9.904491425E0,-6.221338734E-2
4.428499858E0,-8.377870321E-1,-9.880562782E0,-4.307080805E-2
4.430894963E0,-7.803592682E-1,-9.894919395E0,-5.503492057E-2
4.433290848E0,-7.253243923E-1,-9.909276962E0,-7.178468257E-2
4.435686681E0,-6.702894568E-1,-9.875777245E0,-7.178468257E-2
4.438081786E0,-6.391827464E-1,-9.868598938E0,-4.546362907E-2
4.440476890E0,-6.128616929E-1,-9.863813400E0,-4.546362907E-2
4.442872775E0,-5.482555032E-1,-9.849455833E0,-4.307080805E-2
4.445268608E0,-5.099703074E-1,-9.851848602E0,-7.178468257E-2
4.447663713E0,-4.908277392E-1,-9.818050385E0,-1.124626622E-1
4.450058817E0,-4.573282301E-1,-9.832706451E0,-1.172483116E-1
4.452454702E0,-3.640081584E-1,-9.823135376E0,-5.982056633E-2
4.454850536E0,-3.233301640E-1,-9.794121742E0,-2.392822690E-2
4.457245640E0,-2.656033039E-1,-9.782157898E0,-2.632104978E-2
4.459640744E0,-2.105683982E-1,-9.789336205E0,-8.374879509E-2
4.462036629E0,-1.698904037E-1,-9.758230209E0,-7.417750359E-2
4.464432463E0,-1.387837082E-1,-9.736694336E0,-8.135596663E-2
4.466827567E0,-1.292124242E-1,-9.715159416E0,-1.172483116E-1
4.469222671E0,-6.221338734E-2,-9.696016312E0,-1.052841991E-1
4.471618556E0,2.392822690E-2,-9.717552185E0,-1.196411327E-1
4.474014442E0,9.092725813E-2,-9.707980156E0,-1.028913707E-1
4.476409494E0,1.411765367E-1,-9.696016312E0,-1.028913707E-1
4.478804598E0,2.392822653E-1,-9.688838005E0,-8.374879509E-2
4.481200483E0,3.544368446E-1,-9.703194618E0,-5.742774159E-2
4.483596369E0,4.142574072E-1,-9.717552185E0,-5.503492057E-2
4.485991421E0,4.405784607E-1,-9.753444672E0,-2.392822690E-2
4.488386525E0,4.477569461E-1,-9.760622978E0,-2.392822644E-3
4.490782411E0,5.291129351E-1,-9.755837440E0,3.349951655E-2
4.493178296E0,5.721837282E-1,-9.770194054E0,3.589234129E-2
4.495573348E0,6.080760360E-1,-9.770194054E0,6.221338734E-2
4.497968452E0,6.774678826E-1,-9.810872078E0,8.853443712E-2
4.500364338E0,7.564310431E-1,-9.774979591E0,1.100698411E-1
4.502760223E0,8.500502706E-1,-9.782157898E0,1.076770201E-1
4.505155275E0,8.548358679E-1,-9.806086540E0,7.657032460E-2
4.507550379E0,8.668000102E-1,-9.827920914E0,1.220339537E-1
4.509946265E0,8.739784956E-1,-9.902098656E0,1.507478207E-1
4.512342150E0,8.739784956E-1,-9.916455269E0,1.555334777E-1
4.514737202E0,8.401798606E-1,-9.930811882E0,1.627119333E-1
4.517132306E0,8.114659786E-1,-9.942776680E0,1.746760458E-1
4.519528192E0,8.066803217E-1,-9.945169449E0,1.962114573E-1
4.521924077E0,8.162516356E-1,-9.959526062E0,1.794617027E-1
4.524319129E0,8.452646136E-1,-9.961918831E0,1.746760458E-1
4.526714233E0,8.691928387E-1,-9.942776680E0,1.674975902E-1
4.529110119E0,9.002995491E-1,-9.930811882E0,1.411765367E-1
4.531506004E0,9.601200819E-1,-9.957133293E0,1.268195957E-1
4.533901056E0,1.029511929E0,-9.995418549E0,8.853443712E-2
4.536296161E0,1.106082320E0,-9.993025780E0,6.221338734E-2
4.538692046E0,1.182652593E0,-1.001456070E1,5.982056633E-2
4.541087931E0,1.242473125E0,-1.004806042E1,4.067798331E-2
4.543482983E0,1.304686546E0,-1.006959629E1,1.674975827E-2
4.545878088E0,1.357328653E0,-1.012463093E1,9.571290575E-3
4.548273973E0,1.347757339E0,-1.014855862E1,-5.024927482E-2
4.550669858E0,1.347757339E0,-1.011266708E1,-1.028913707E-1
4.553064911E0,1.378864050E0,-1.007677460E1,-1.579262912E-1
4.555460015E0,1.415055513E0,-1.002652550E1,-1.842473447E-1
4.557855952E0,1.470090389E0,-9.952347755E0,-2.416750938E-1
4.560251786E0,1.460519075E0,-9.971489906E0,-3.185445070E-1
4.562646838E0,1.402792215E0,-9.942776680E0,-3.113660514E-1
4.565041942E0,1.424626827E0,-9.880562782E0,-3.472583890E-1
4.567437879E0,1.436590910E0,-9.827920914E0,-4.022932947E-1
4.569833713E0,1.455733418E0,-9.774979591E0,-4.453641176E-1
4.572228765E0,1.496411443E0,-9.798908234E0,-4.956133962E-1
4.574623869E0,1.513161182E0,-9.844670296E0,-4.836492836E-1
4.577019806E0,1.419841170E0,-9.880562782E0,-4.573282301E-1
4.579415640E0,1.331007600E0,-9.894919395E0,-3.807578981E-1
4.581810692E0,1.280758262E0,-9.897313118E0,-3.711866140E-1
4.584205796E0,1.213759303E0,-9.882955551E0,-3.568296731E-1
4.586601733E0,1.206580877E0,-9.851848602E0,-3.305086195E-1
4.588997567E0,1.225723386E0,-9.897313118E0,-3.305086195E-1
4.591392619E0,1.182652593E0,-9.906884193E0,-3.352942765E-1
4.593787723E0,1.197009563E0,-9.976275444E0,-3.065803945E-1
4.596183661E0,1.235294700E0,-1.000020409E1,-2.898306549E-1
4.598579494E0,1.228116274E0,-1.000977516E1,-2.536391914E-1
4.600974546E0,1.208973646E0,-9.990633011E0,-2.632105052E-1
4.603369650E0,1.177866936E0,-9.947562218E0,-2.874378264E-1
4.605765588E0,1.137188911E0,-9.899705887E0,-3.065803945E-1
4.608161421E0,1.079761267E0,-9.851848602E0,-3.185445070E-1
4.610556473E0,1.027119160E0,-9.837491989E0,-3.185445070E-1
4.612951577E0,1.003190875E0,-9.837491989E0,-3.041875660E-1
4.615347515E0,9.625129104E-1,-9.851848602E0,-2.994019389E-1
4.617743348E0,9.361918569E-1,-9.849455833E0,-2.775674164E-1
4.620138400E0,9.242277741E-1,-9.870991707E0,-3.089732230E-1
4.622533504E0,9.002995491E-1,-9.904491425E0,-3.041875660E-1
4.624929442E0,8.596215248E-1,-9.916455269E0,-3.305086195E-1
4.627325275E0,8.524430394E-1,-9.933204651E0,-3.807578981E-1
4.629720379E0,8.282157183E-1,-9.995418549E0,-3.496512175E-1
4.632115483E0,8.090731502E-1,-1.004566765E1,-3.496512175E-1
4.634511369E0,7.588238716E-1,-1.006480980E1,-3.161516786E-1
4.636907202E0,7.348956466E-1,-1.006959629E1,-2.946162820E-1
4.639302306E0,7.157530785E-1,-1.012463093E1,-3.161516786E-1
4.641697411E0,6.918248534E-1,-1.013180923E1,-2.826521695E-1
4.644093296E0,6.607181430E-1,-1.012463093E1,-2.775674164E-1
4.646489129E0,6.248258352E-1,-1.009113121E1,-2.994019389E-1
4.648884233E0,5.410770178E-1,-1.006720352E1,-3.185445070E-1
4.651279338E0,4.812564552E-1,-1.008156013E1,-3.305086195E-1
4.653675223E0,4.836492836E-1,-1.013180923E1,-3.089732230E-1
4.656071056E0,3.759722710E-1,-1.008395290E1,-2.970091105E-1
4.658466161E0,3.257229924E-1,-9.945169449E0,-3.711866140E-1
4.660861265E0,3.209373355E-1,-9.911669731E0,-4.286143482E-1
4.663257150E0,3.616153300E-1,-9.952347755E0,-4.716851711E-1
4.665652983E0,3.472583890E-1,-1.000977516E1,-4.621138871E-1
4.668048088E0,3.041875660E-1,-1.004327488E1,-4.166502357E-1
4.670443192E0,2.416750938E-1,-1.004327488E1,-3.855435550E-1
4.672839077E0,1.579262912E-1,-1.003609657E1,-4.166502357E-1
4.675234911E0,8.374879509E-2,-1.004088211E1,-4.238287210E-1
4.677630015E0,3.110669367E-2,-1.002652550E1,-4.190430641E-1
4.680025119E0,-9.571290575E-3,-9.971489906E0,-3.855435550E-1
4.682421004E0,-4.546362907E-2,-9.949954987E0,-3.568296731E-1
4.684816838E0,-6.460621208E-2,-9.928419113E0,-3.496512175E-1
4.687211942E0,-1.579262912E-1,-9.897313118E0,-3.424727321E-1
4.689607046E0,-2.105683982E-1,-9.842277527E0,-3.592225015E-1
4.692002931E0,-2.321037948E-1,-9.772586823E0,-3.687937856E-1
4.694398765E0,-2.727817893E-1,-9.748658180E0,-3.879363835E-1
4.696793869E0,-2.799602449E-1,-9.729516029E0,-3.711866140E-1
4.699188973E0,-2.656033039E-1,-9.741479874E0,-3.592225015E-1
4.701584858E0,-2.946162820E-1,-9.739087105E0,-3.735794425E-1
4.703980744E0,-3.209373355E-1,-9.734301567E0,-3.687937856E-1
4.706375796E0,-3.496512175E-1,-9.765408516E0,-3.592225015E-1
4.708770900E0,-3.664009571E-1,-9.772586823E0,-3.209373355E-1
4.711166786E0,-3.640081584E-1,-9.758230209E0,-3.352942765E-1
4.713562671E0,-3.687937856E-1,-9.777372360E0,-2.970091105E-1
4.715957723E0,-3.592225015E-1,-9.794121742E0,-2.799602449E-1
4.718352827E0,-3.568296731E-1,-9.820742607E0,-2.775674164E-1
4.720748713E0,-3.544368446E-1,-9.837491989E0,-2.727817893E-1
4.723144598E0,-3.352942765E-1,-9.832706451E0,-2.416750938E-1
4.725539650E0,-3.185445070E-1,-9.870991707E0,-2.488535494E-1
4.727934754E0,-3.113660514E-1,-9.878170013E0,-2.081755698E-1
4.730330640E0,-2.799602449E-1,-9.890133858E0,-1.938186288E-1
4.732726525E0,-2.799602449E-1,-9.909276962E0,-1.651047617E-1
4.735121577E0,-2.584248483E-1,-9.921240807E0,-1.603191197E-1
4.737516681E0,-2.679961324E-1,-9.902098656E0,-1.339980662E-1
4.739912567E0,-2.560320199E-1,-9.914062500E0,-1.052841991E-1
4.742308452E0,-2.344966233E-1,-9.921240807E0,-8.853443712E-2
4.744703504E0,-2.440679073E-1,-9.918848038E0,-7.417750359E-2
4.747098608E0,-2.751746178E-1,-9.868598938E0,-6.460621208E-2
4.749494494E0,-2.464607358E-1,-9.880562782E0,-4.546362907E-2
4.751890379E0,-2.392822653E-1,-9.875777245E0,-3.349951655E-2
4.754285431E0,-2.273181528E-1,-9.894919395E0,-3.349951655E-2
4.756680536E0,-2.153540403E-1,-9.914062500E0,-3.349951655E-2
4.759076421E0,-1.866401732E-1,-9.921240807E0,-2.153540403E-2
4.761472306E0,-1.842473447E-1,-9.892526627E0,-1.435693540E-2
4.763867358E0,-1.627119333E-1,-9.859027863E0,-2.153540403E-2
4.766262463E0,-1.220339537E-1,-9.854242325E0,4.785645287E-3
4.768658348E0,-9.092725813E-2,-9.849455833E0,-7.178467698E-3
4.771054233E0,-9.092725813E-2,-9.847063065E0,-3.589234129E-2
4.773449286E0,-5.503492057E-2,-9.842277527E0,-2.392822644E-3
4.775844390E0,-4.546362907E-2,-9.837491989E0,9.571290575E-3
4.778240275E0,-2.632104978E-2,-9.830313683E0,-3.110669367E-2
4.780636161E0,1.196411345E-2,-9.837491989E0,-1.674975827E-2
4.783031213E0,4.307080805E-2,-9.878170013E0,4.785645287E-3
4.785426317E0,3.110669367E-2,-9.933204651E0,9.571290575E-3
4.787822202E0,2.871387079E-2,-9.940383911E0,1.435693540E-2
4.790218088E0,0.000000000E0,-9.930811882E0,4.785645287E-3
4.792613140E0,-2.871387079E-2,-9.914062500E0,1.674975827E-2
4.795008244E0,-2.392822690E-2,-9.885348320E0,-2.153540403E-2
4.797404129E0,-2.632104978E-2,-9.880562782E0,-1.435693540E-2
4.799800015E0,-4.307080805E-2,-9.868598938E0,-2.632104978E-2
4.802195067E0,-5.742774159E-2,-9.842277527E0,2.392822644E-3
4.804590171E0,-5.024927482E-2,-9.806086540E0,3.110669367E-2
4.806986056E0,-4.067798331E-2,-9.808479309E0,7.178467698E-3
4.809381942E0,-3.349951655E-2,-9.815657616E0,-2.392822644E-3
4.811776994E0,-9.571290575E-3,-9.801301003E0,-0.000000000E0
4.814172098E0,2.871387079E-2,-9.784550667E0,9.571290575E-3
4.816567983E0,6.939185411E-2,-9.782157898E0,2.871387079E-2
4.818963869E0,9.810572863E-2,-9.772586823E0,7.178467698E-3
4.821358921E0,1.244267747E-1,-9.767801285E0,3.110669367E-2
4.823754025E0,1.818545163E-1,-9.765408516E0,3.589234129E-2
4.826149911E0,2.512463629E-1,-9.794121742E0,3.589234129E-2
4.828545796E0,3.041875660E-1,-9.794121742E0,5.982056633E-2
4.830940848E0,3.592225015E-1,-9.810872078E0,3.828516230E-2
4.833335952E0,4.094717801E-1,-9.839884758E0,3.828516230E-2
4.835731838E0,4.501497746E-1,-9.849455833E0,1.435693540E-2
4.838127723E0,5.027918816E-1,-9.880562782E0,7.178467698E-3
4.840522775E0,5.291129351E-1,-9.878170013E0,-2.153540403E-2
4.842917879E0,5.769693851E-1,-9.904491425E0,2.392822644E-3
4.845313817E0,5.817549825E-1,-9.959526062E0,-2.392822644E-3
4.847709650E0,6.224330068E-1,-9.978668213E0,-1.914258115E-2
4.850104702E0,6.439684033E-1,-1.001456070E1,0.000000000E0
4.852499806E0,6.367899179E-1,-1.005284595E1,-3.349951655E-2
4.854895744E0,6.559324861E-1,-1.009352398E1,-3.110669367E-2
4.857291577E0,6.391827464E-1,-1.010548782E1,-3.110669367E-2
4.859686629E0,6.272186637E-1,-1.015334511E1,-4.546362907E-2
4.862081733E0,6.296114326E-1,-1.016291618E1,0.000000000E0
4.864477671E0,6.655037999E-1,-1.014855862E1,3.110669367E-2
4.866873504E0,7.061817646E-1,-1.010070229E1,9.571290575E-3
4.869268556E0,7.181459069E-1,-1.001456070E1,-4.785645381E-2
4.871663661E0,7.396813035E-1,-9.993025780E0,-7.657032460E-2
4.874059598E0,7.229315639E-1,-9.959526062E0,-5.024927482E-2
4.876455431E0,7.037889361E-1,-9.954740524E0,0.000000000E0
4.878850483E0,6.750751138E-1,-9.947562218E0,2.632104978E-2
4.881245588E0,6.272186637E-1,-9.945169449E0,1.196411345E-2
4.883641473E0,5.913262963E-1,-9.935597420E0,2.632104978E-2
4.886037358E0,5.769693851E-1,-9.930811882E0,1.435693540E-2
4.888432411E0,5.003990531E-1,-9.942776680E0,2.632104978E-2
4.890827515E0,4.740779996E-1,-9.916455269E0,1.914258115E-2
4.893223452E0,4.310071766E-1,-9.906884193E0,-1.674975827E-2
4.895619286E0,3.879363835E-1,-9.914062500E0,-4.785645381E-2
4.898014338E0,3.664009571E-1,-9.887741089E0,-8.853443712E-2
4.900409442E0,3.592225015E-1,-9.906884193E0,-1.459621787E-1
4.902805379E0,3.687937856E-1,-9.935597420E0,-1.986042857E-1
4.905201213E0,3.329014480E-1,-9.930811882E0,-2.512463629E-1
